"success","timeout","failed_images","failed_audio","failed_video","trial_type","trial_index","plugin_version","time_elapsed","rt","stimulus","response","participant","phase","block","trial","trial_in_block","placements","move_log"
"true","false","[]","[]","[]","preload","0","2.1.0","33","","","","","","","","","",""
"","","","","","html-button-response","1","2.1.0","824","791","
    <div style=""font-size:22px; line-height:1.5; max-width:850px; margin:auto; padding:20px;"">
      <p><b>This task works best in landscape orientation.</b></p>
      <p>If you are using an iPad, please rotate it horizontally before continuing.</p>
    </div>
  ","0","","","","","","",""
"","","","","","html-button-response","2","2.1.0","1336","511","
    <div style=""font-size:22px; line-height:1.5; max-width:850px; margin:auto; padding:20px;"">
      <p>You will first complete <b>1 practice trial</b>.</p>
      <p>After that, you will complete <b>2 blocks</b> of trials, with <b>3 trials per block</b>.</p>
    </div>
  ","0","","","","","","",""
"","","","","","html-button-response","3","2.1.0","2325","987","
    <div style=""font-size:22px; line-height:1.5; max-width:850px; margin:auto; padding:20px;"">
      <p>One picture will appear at a time.</p>
      <p>Place the current picture into the grid based on how it belongs with the pictures already shown.</p>
      <p>You can still move the earlier pictures if you want to adjust your arrangement.</p>
      <p>As soon as you place the current picture into the grid, the next picture will appear automatically.</p>
    </div>
  ","0","","","","","","",""
"","","","","","html-button-response","4","2.1.0","2941","615","<div style=""font-size:24px; padding:20px;"">Practice Trial</div>","0","","","","","","",""
"","","","","","emotion-grid","5","null","8320","","","","demo","practice","null","0","0","[{""participant"":""demo"",""phase"":""practice"",""block"":null,""trial"":0,""trial_in_block"":0,""image"":""rice.jpg"",""final_img_pos"":""(528, 208)"",""posX"":528,""posY"":208,""grid_col"":5,""grid_row"":2,""introduction_order"":1},{""participant"":""demo"",""phase"":""practice"",""block"":null,""trial"":0,""trial_in_block"":0,""image"":""pizza.jpg"",""final_img_pos"":""(424, 416)"",""posX"":424,""posY"":416,""grid_col"":4,""grid_row"":4,""introduction_order"":2},{""participant"":""demo"",""phase"":""practice"",""block"":null,""trial"":0,""trial_in_block"":0,""image"":""ice_cream.jpg"",""final_img_pos"":""(632, 624)"",""posX"":632,""posY"":624,""grid_col"":6,""grid_row"":6,""introduction_order"":3},{""participant"":""demo"",""phase"":""practice"",""block"":null,""trial"":0,""trial_in_block"":0,""image"":""chocolate.jpg"",""final_img_pos"":""(736, 312)"",""posX"":736,""posY"":312,""grid_col"":7,""grid_row"":3,""introduction_order"":4},{""participant"":""demo"",""phase"":""practice"",""block"":null,""trial"":0,""trial_in_block"":0,""image"":""ham.jpg"",""final_img_pos"":""(840, 520)"",""posX"":840,""posY"":520,""grid_col"":8,""grid_row"":5,""introduction_order"":5},{""participant"":""demo"",""phase"":""practice"",""block"":null,""trial"":0,""trial_in_block"":0,""image"":""salad.jpg"",""final_img_pos"":""(632, 416)"",""posX"":632,""posY"":416,""grid_col"":6,""grid_row"":4,""introduction_order"":6}]","[{""step"":0,""event"":""placement"",""image_index"":0,""image_name"":""rice.jpg"",""trial"":0,""block"":null,""phase"":""practice"",""x"":580,""y"":364,""grid_col"":6,""grid_row"":4},{""step"":1,""event"":""placement"",""image_index"":0,""image_name"":""rice.jpg"",""trial"":0,""block"":null,""phase"":""practice"",""x"":580,""y"":364,""grid_col"":6,""grid_row"":4},{""step"":2,""event"":""placement"",""image_index"":0,""image_name"":""rice.jpg"",""trial"":0,""block"":null,""phase"":""practice"",""x"":579,""y"":360,""grid_col"":5,""grid_row"":3},{""step"":3,""event"":""placement"",""image_index"":0,""image_name"":""rice.jpg"",""trial"":0,""block"":null,""phase"":""practice"",""x"":577,""y"":352,""grid_col"":5,""grid_row"":3},{""step"":4,""event"":""placement"",""image_index"":0,""image_name"":""rice.jpg"",""trial"":0,""block"":null,""phase"":""practice"",""x"":572,""y"":339,""grid_col"":5,""grid_row"":3},{""step"":5,""event"":""placement"",""image_index"":0,""image_name"":""rice.jpg"",""trial"":0,""block"":null,""phase"":""practice"",""x"":559,""y"":309,""grid_col"":5,""grid_row"":3},{""step"":6,""event"":""placement"",""image_index"":0,""image_name"":""rice.jpg"",""trial"":0,""block"":null,""phase"":""practice"",""x"":547,""y"":281,""grid_col"":5,""grid_row"":3},{""step"":7,""event"":""placement"",""image_index"":0,""image_name"":""rice.jpg"",""trial"":0,""block"":null,""phase"":""practice"",""x"":540,""y"":260,""grid_col"":5,""grid_row"":3},{""step"":8,""event"":""placement"",""image_index"":0,""image_name"":""rice.jpg"",""trial"":0,""block"":null,""phase"":""practice"",""x"":532,""y"":243,""grid_col"":5,""grid_row"":2},{""step"":9,""event"":""placement"",""image_index"":0,""image_name"":""rice.jpg"",""trial"":0,""block"":null,""phase"":""practice"",""x"":530,""y"":236,""grid_col"":5,""grid_row"":2},{""step"":10,""event"":""placement"",""image_index"":0,""image_name"":""rice.jpg"",""trial"":0,""block"":null,""phase"":""practice"",""x"":525,""y"":225,""grid_col"":5,""grid_row"":2},{""step"":11,""event"":""placement"",""image_index"":0,""image_name"":""rice.jpg"",""trial"":0,""block"":null,""phase"":""practice"",""x"":519,""y"":210,""grid_col"":5,""grid_row"":2},{""step"":12,""event"":""placement"",""image_index"":0,""image_name"":""rice.jpg"",""trial"":0,""block"":null,""phase"":""practice"",""x"":515,""y"":202,""grid_col"":5,""grid_row"":2},{""step"":13,""event"":""placement"",""image_index"":0,""image_name"":""rice.jpg"",""trial"":0,""block"":null,""phase"":""practice"",""x"":512,""y"":196,""grid_col"":5,""grid_row"":2},{""step"":14,""event"":""placement"",""image_index"":0,""image_name"":""rice.jpg"",""trial"":0,""block"":null,""phase"":""practice"",""x"":509,""y"":190,""grid_col"":5,""grid_row"":2},{""step"":15,""event"":""placement"",""image_index"":0,""image_name"":""rice.jpg"",""trial"":0,""block"":null,""phase"":""practice"",""x"":508,""y"":187,""grid_col"":5,""grid_row"":2},{""step"":16,""event"":""placement"",""image_index"":0,""image_name"":""rice.jpg"",""trial"":0,""block"":null,""phase"":""practice"",""x"":506,""y"":185,""grid_col"":5,""grid_row"":2},{""step"":17,""event"":""placement"",""image_index"":0,""image_name"":""rice.jpg"",""trial"":0,""block"":null,""phase"":""practice"",""x"":506,""y"":184,""grid_col"":5,""grid_row"":2},{""step"":18,""event"":""placement"",""image_index"":1,""image_name"":""pizza.jpg"",""trial"":0,""block"":null,""phase"":""practice"",""x"":580,""y"":364,""grid_col"":6,""grid_row"":4},{""step"":19,""event"":""placement"",""image_index"":1,""image_name"":""pizza.jpg"",""trial"":0,""block"":null,""phase"":""practice"",""x"":580,""y"":364,""grid_col"":5,""grid_row"":4},{""step"":20,""event"":""placement"",""image_index"":1,""image_name"":""pizza.jpg"",""trial"":0,""block"":null,""phase"":""practice"",""x"":577,""y"":364,""grid_col"":5,""grid_row"":4},{""step"":21,""event"":""placement"",""image_index"":1,""image_name"":""pizza.jpg"",""trial"":0,""block"":null,""phase"":""practice"",""x"":570,""y"":367,""grid_col"":5,""grid_row"":4},{""step"":22,""event"":""placement"",""image_index"":1,""image_name"":""pizza.jpg"",""trial"":0,""block"":null,""phase"":""practice"",""x"":560,""y"":371,""grid_col"":5,""grid_row"":4},{""step"":23,""event"":""placement"",""image_index"":1,""image_name"":""pizza.jpg"",""trial"":0,""block"":null,""phase"":""practice"",""x"":550,""y"":376,""grid_col"":5,""grid_row"":4},{""step"":24,""event"":""placement"",""image_index"":1,""image_name"":""pizza.jpg"",""trial"":0,""block"":null,""phase"":""practice"",""x"":539,""y"":382,""grid_col"":5,""grid_row"":4},{""step"":25,""event"":""placement"",""image_index"":1,""image_name"":""pizza.jpg"",""trial"":0,""block"":null,""phase"":""practice"",""x"":524,""y"":390,""grid_col"":5,""grid_row"":4},{""step"":26,""event"":""placement"",""image_index"":1,""image_name"":""pizza.jpg"",""trial"":0,""block"":null,""phase"":""practice"",""x"":511,""y"":398,""grid_col"":5,""grid_row"":4},{""step"":27,""event"":""placement"",""image_index"":1,""image_name"":""pizza.jpg"",""trial"":0,""block"":null,""phase"":""practice"",""x"":499,""y"":404,""grid_col"":5,""grid_row"":4},{""step"":28,""event"":""placement"",""image_index"":1,""image_name"":""pizza.jpg"",""trial"":0,""block"":null,""phase"":""practice"",""x"":479,""y"":414,""grid_col"":5,""grid_row"":4},{""step"":29,""event"":""placement"",""image_index"":1,""image_name"":""pizza.jpg"",""trial"":0,""block"":null,""phase"":""practice"",""x"":470,""y"":418,""grid_col"":4,""grid_row"":4},{""step"":30,""event"":""placement"",""image_index"":1,""image_name"":""pizza.jpg"",""trial"":0,""block"":null,""phase"":""practice"",""x"":465,""y"":419,""grid_col"":4,""grid_row"":4},{""step"":31,""event"":""placement"",""image_index"":1,""image_name"":""pizza.jpg"",""trial"":0,""block"":null,""phase"":""practice"",""x"":461,""y"":420,""grid_col"":4,""grid_row"":4},{""step"":32,""event"":""placement"",""image_index"":1,""image_name"":""pizza.jpg"",""trial"":0,""block"":null,""phase"":""practice"",""x"":458,""y"":421,""grid_col"":4,""grid_row"":4},{""step"":33,""event"":""placement"",""image_index"":1,""image_name"":""pizza.jpg"",""trial"":0,""block"":null,""phase"":""practice"",""x"":456,""y"":421,""grid_col"":4,""grid_row"":4},{""step"":34,""event"":""placement"",""image_index"":1,""image_name"":""pizza.jpg"",""trial"":0,""block"":null,""phase"":""practice"",""x"":455,""y"":421,""grid_col"":4,""grid_row"":4},{""step"":35,""event"":""placement"",""image_index"":1,""image_name"":""pizza.jpg"",""trial"":0,""block"":null,""phase"":""practice"",""x"":454,""y"":421,""grid_col"":4,""grid_row"":4},{""step"":36,""event"":""placement"",""image_index"":2,""image_name"":""ice_cream.jpg"",""trial"":0,""block"":null,""phase"":""practice"",""x"":580,""y"":366,""grid_col"":6,""grid_row"":4},{""step"":37,""event"":""placement"",""image_index"":2,""image_name"":""ice_cream.jpg"",""trial"":0,""block"":null,""phase"":""practice"",""x"":580,""y"":371,""grid_col"":6,""grid_row"":4},{""step"":38,""event"":""placement"",""image_index"":2,""image_name"":""ice_cream.jpg"",""trial"":0,""block"":null,""phase"":""practice"",""x"":580,""y"":382,""grid_col"":6,""grid_row"":4},{""step"":39,""event"":""placement"",""image_index"":2,""image_name"":""ice_cream.jpg"",""trial"":0,""block"":null,""phase"":""practice"",""x"":580,""y"":408,""grid_col"":6,""grid_row"":4},{""step"":40,""event"":""placement"",""image_index"":2,""image_name"":""ice_cream.jpg"",""trial"":0,""block"":null,""phase"":""practice"",""x"":580,""y"":445,""grid_col"":6,""grid_row"":4},{""step"":41,""event"":""placement"",""image_index"":2,""image_name"":""ice_cream.jpg"",""trial"":0,""block"":null,""phase"":""practice"",""x"":580,""y"":482,""grid_col"":6,""grid_row"":5},{""step"":42,""event"":""placement"",""image_index"":2,""image_name"":""ice_cream.jpg"",""trial"":0,""block"":null,""phase"":""practice"",""x"":580,""y"":526,""grid_col"":6,""grid_row"":5},{""step"":43,""event"":""placement"",""image_index"":2,""image_name"":""ice_cream.jpg"",""trial"":0,""block"":null,""phase"":""practice"",""x"":580,""y"":565,""grid_col"":6,""grid_row"":5},{""step"":44,""event"":""placement"",""image_index"":2,""image_name"":""ice_cream.jpg"",""trial"":0,""block"":null,""phase"":""practice"",""x"":580,""y"":600,""grid_col"":6,""grid_row"":6},{""step"":45,""event"":""placement"",""image_index"":2,""image_name"":""ice_cream.jpg"",""trial"":0,""block"":null,""phase"":""practice"",""x"":580,""y"":616,""grid_col"":6,""grid_row"":6},{""step"":46,""event"":""placement"",""image_index"":2,""image_name"":""ice_cream.jpg"",""trial"":0,""block"":null,""phase"":""practice"",""x"":580,""y"":616,""grid_col"":6,""grid_row"":6},{""step"":47,""event"":""placement"",""image_index"":2,""image_name"":""ice_cream.jpg"",""trial"":0,""block"":null,""phase"":""practice"",""x"":580,""y"":616,""grid_col"":6,""grid_row"":6},{""step"":48,""event"":""placement"",""image_index"":2,""image_name"":""ice_cream.jpg"",""trial"":0,""block"":null,""phase"":""practice"",""x"":580,""y"":616,""grid_col"":6,""grid_row"":6},{""step"":49,""event"":""placement"",""image_index"":2,""image_name"":""ice_cream.jpg"",""trial"":0,""block"":null,""phase"":""practice"",""x"":580,""y"":616,""grid_col"":6,""grid_row"":6},{""step"":50,""event"":""placement"",""image_index"":2,""image_name"":""ice_cream.jpg"",""trial"":0,""block"":null,""phase"":""practice"",""x"":580,""y"":616,""grid_col"":6,""grid_row"":6},{""step"":51,""event"":""placement"",""image_index"":3,""image_name"":""chocolate.jpg"",""trial"":0,""block"":null,""phase"":""practice"",""x"":580,""y"":364,""grid_col"":6,""grid_row"":3},{""step"":52,""event"":""placement"",""image_index"":3,""image_name"":""chocolate.jpg"",""trial"":0,""block"":null,""phase"":""practice"",""x"":581,""y"":364,""grid_col"":6,""grid_row"":3},{""step"":53,""event"":""placement"",""image_index"":3,""image_name"":""chocolate.jpg"",""trial"":0,""block"":null,""phase"":""practice"",""x"":585,""y"":363,""grid_col"":6,""grid_row"":3},{""step"":54,""event"":""placement"",""image_index"":3,""image_name"":""chocolate.jpg"",""trial"":0,""block"":null,""phase"":""practice"",""x"":593,""y"":362,""grid_col"":6,""grid_row"":3},{""step"":55,""event"":""placement"",""image_index"":3,""image_name"":""chocolate.jpg"",""trial"":0,""block"":null,""phase"":""practice"",""x"":604,""y"":361,""grid_col"":6,""grid_row"":3},{""step"":56,""event"":""placement"",""image_index"":3,""image_name"":""chocolate.jpg"",""trial"":0,""block"":null,""phase"":""practice"",""x"":621,""y"":359,""grid_col"":6,""grid_row"":3},{""step"":57,""event"":""placement"",""image_index"":3,""image_name"":""chocolate.jpg"",""trial"":0,""block"":null,""phase"":""practice"",""x"":641,""y"":358,""grid_col"":6,""grid_row"":3},{""step"":58,""event"":""placement"",""image_index"":3,""image_name"":""chocolate.jpg"",""trial"":0,""block"":null,""phase"":""practice"",""x"":657,""y"":357,""grid_col"":6,""grid_row"":3},{""step"":59,""event"":""placement"",""image_index"":3,""image_name"":""chocolate.jpg"",""trial"":0,""block"":null,""phase"":""practice"",""x"":673,""y"":357,""grid_col"":6,""grid_row"":3},{""step"":60,""event"":""placement"",""image_index"":3,""image_name"":""chocolate.jpg"",""trial"":0,""block"":null,""phase"":""practice"",""x"":693,""y"":357,""grid_col"":7,""grid_row"":3},{""step"":61,""event"":""placement"",""image_index"":3,""image_name"":""chocolate.jpg"",""trial"":0,""block"":null,""phase"":""practice"",""x"":705,""y"":357,""grid_col"":7,""grid_row"":3},{""step"":62,""event"":""placement"",""image_index"":3,""image_name"":""chocolate.jpg"",""trial"":0,""block"":null,""phase"":""practice"",""x"":712,""y"":357,""grid_col"":7,""grid_row"":3},{""step"":63,""event"":""placement"",""image_index"":3,""image_name"":""chocolate.jpg"",""trial"":0,""block"":null,""phase"":""practice"",""x"":719,""y"":357,""grid_col"":7,""grid_row"":3},{""step"":64,""event"":""placement"",""image_index"":3,""image_name"":""chocolate.jpg"",""trial"":0,""block"":null,""phase"":""practice"",""x"":726,""y"":357,""grid_col"":7,""grid_row"":3},{""step"":65,""event"":""placement"",""image_index"":3,""image_name"":""chocolate.jpg"",""trial"":0,""block"":null,""phase"":""practice"",""x"":732,""y"":357,""grid_col"":7,""grid_row"":3},{""step"":66,""event"":""placement"",""image_index"":4,""image_name"":""ham.jpg"",""trial"":0,""block"":null,""phase"":""practice"",""x"":580,""y"":364,""grid_col"":5,""grid_row"":3},{""step"":67,""event"":""placement"",""image_index"":4,""image_name"":""ham.jpg"",""trial"":0,""block"":null,""phase"":""practice"",""x"":580,""y"":364,""grid_col"":6,""grid_row"":3},{""step"":68,""event"":""placement"",""image_index"":4,""image_name"":""ham.jpg"",""trial"":0,""block"":null,""phase"":""practice"",""x"":585,""y"":367,""grid_col"":6,""grid_row"":4},{""step"":69,""event"":""placement"",""image_index"":4,""image_name"":""ham.jpg"",""trial"":0,""block"":null,""phase"":""practice"",""x"":593,""y"":374,""grid_col"":6,""grid_row"":4},{""step"":70,""event"":""placement"",""image_index"":4,""image_name"":""ham.jpg"",""trial"":0,""block"":null,""phase"":""practice"",""x"":605,""y"":381,""grid_col"":6,""grid_row"":4},{""step"":71,""event"":""placement"",""image_index"":4,""image_name"":""ham.jpg"",""trial"":0,""block"":null,""phase"":""practice"",""x"":621,""y"":391,""grid_col"":6,""grid_row"":4},{""step"":72,""event"":""placement"",""image_index"":4,""image_name"":""ham.jpg"",""trial"":0,""block"":null,""phase"":""practice"",""x"":643,""y"":405,""grid_col"":6,""grid_row"":4},{""step"":73,""event"":""placement"",""image_index"":4,""image_name"":""ham.jpg"",""trial"":0,""block"":null,""phase"":""practice"",""x"":669,""y"":422,""grid_col"":6,""grid_row"":4},{""step"":74,""event"":""placement"",""image_index"":4,""image_name"":""ham.jpg"",""trial"":0,""block"":null,""phase"":""practice"",""x"":694,""y"":437,""grid_col"":7,""grid_row"":4},{""step"":75,""event"":""placement"",""image_index"":4,""image_name"":""ham.jpg"",""trial"":0,""block"":null,""phase"":""practice"",""x"":714,""y"":449,""grid_col"":7,""grid_row"":4},{""step"":76,""event"":""placement"",""image_index"":4,""image_name"":""ham.jpg"",""trial"":0,""block"":null,""phase"":""practice"",""x"":727,""y"":457,""grid_col"":7,""grid_row"":4},{""step"":77,""event"":""placement"",""image_index"":4,""image_name"":""ham.jpg"",""trial"":0,""block"":null,""phase"":""practice"",""x"":742,""y"":466,""grid_col"":7,""grid_row"":4},{""step"":78,""event"":""placement"",""image_index"":4,""image_name"":""ham.jpg"",""trial"":0,""block"":null,""phase"":""practice"",""x"":755,""y"":473,""grid_col"":7,""grid_row"":5},{""step"":79,""event"":""placement"",""image_index"":4,""image_name"":""ham.jpg"",""trial"":0,""block"":null,""phase"":""practice"",""x"":767,""y"":479,""grid_col"":7,""grid_row"":5},{""step"":80,""event"":""placement"",""image_index"":4,""image_name"":""ham.jpg"",""trial"":0,""block"":null,""phase"":""practice"",""x"":778,""y"":484,""grid_col"":7,""grid_row"":5},{""step"":81,""event"":""placement"",""image_index"":4,""image_name"":""ham.jpg"",""trial"":0,""block"":null,""phase"":""practice"",""x"":787,""y"":486,""grid_col"":7,""grid_row"":5},{""step"":82,""event"":""placement"",""image_index"":4,""image_name"":""ham.jpg"",""trial"":0,""block"":null,""phase"":""practice"",""x"":793,""y"":488,""grid_col"":8,""grid_row"":5},{""step"":83,""event"":""placement"",""image_index"":5,""image_name"":""salad.jpg"",""trial"":0,""block"":null,""phase"":""practice"",""x"":580,""y"":364,""grid_col"":5,""grid_row"":4},{""step"":84,""event"":""placement"",""image_index"":5,""image_name"":""salad.jpg"",""trial"":0,""block"":null,""phase"":""practice"",""x"":580,""y"":364,""grid_col"":5,""grid_row"":4},{""step"":85,""event"":""placement"",""image_index"":5,""image_name"":""salad.jpg"",""trial"":0,""block"":null,""phase"":""practice"",""x"":580,""y"":365,""grid_col"":5,""grid_row"":4},{""step"":86,""event"":""placement"",""image_index"":5,""image_name"":""salad.jpg"",""trial"":0,""block"":null,""phase"":""practice"",""x"":580,""y"":368,""grid_col"":5,""grid_row"":4},{""step"":87,""event"":""placement"",""image_index"":5,""image_name"":""salad.jpg"",""trial"":0,""block"":null,""phase"":""practice"",""x"":580,""y"":372,""grid_col"":5,""grid_row"":4},{""step"":88,""event"":""placement"",""image_index"":5,""image_name"":""salad.jpg"",""trial"":0,""block"":null,""phase"":""practice"",""x"":581,""y"":378,""grid_col"":6,""grid_row"":4},{""step"":89,""event"":""placement"",""image_index"":5,""image_name"":""salad.jpg"",""trial"":0,""block"":null,""phase"":""practice"",""x"":584,""y"":388,""grid_col"":6,""grid_row"":4},{""step"":90,""event"":""placement"",""image_index"":5,""image_name"":""salad.jpg"",""trial"":0,""block"":null,""phase"":""practice"",""x"":588,""y"":399,""grid_col"":6,""grid_row"":4},{""step"":91,""event"":""placement"",""image_index"":5,""image_name"":""salad.jpg"",""trial"":0,""block"":null,""phase"":""practice"",""x"":593,""y"":411,""grid_col"":6,""grid_row"":4},{""step"":92,""event"":""placement"",""image_index"":5,""image_name"":""salad.jpg"",""trial"":0,""block"":null,""phase"":""practice"",""x"":598,""y"":422,""grid_col"":6,""grid_row"":4},{""step"":93,""event"":""placement"",""image_index"":5,""image_name"":""salad.jpg"",""trial"":0,""block"":null,""phase"":""practice"",""x"":601,""y"":429,""grid_col"":6,""grid_row"":4},{""step"":94,""event"":""placement"",""image_index"":5,""image_name"":""salad.jpg"",""trial"":0,""block"":null,""phase"":""practice"",""x"":603,""y"":433,""grid_col"":6,""grid_row"":4},{""step"":95,""event"":""placement"",""image_index"":5,""image_name"":""salad.jpg"",""trial"":0,""block"":null,""phase"":""practice"",""x"":605,""y"":437,""grid_col"":6,""grid_row"":4},{""step"":96,""event"":""placement"",""image_index"":5,""image_name"":""salad.jpg"",""trial"":0,""block"":null,""phase"":""practice"",""x"":606,""y"":441,""grid_col"":6,""grid_row"":4},{""step"":97,""event"":""placement"",""image_index"":5,""image_name"":""salad.jpg"",""trial"":0,""block"":null,""phase"":""practice"",""x"":607,""y"":444,""grid_col"":6,""grid_row"":4},{""step"":98,""event"":""placement"",""image_index"":5,""image_name"":""salad.jpg"",""trial"":0,""block"":null,""phase"":""practice"",""x"":608,""y"":446,""grid_col"":6,""grid_row"":4},{""step"":99,""event"":""placement"",""image_index"":5,""image_name"":""salad.jpg"",""trial"":0,""block"":null,""phase"":""practice"",""x"":609,""y"":447,""grid_col"":6,""grid_row"":4}]"
"","","","","","html-button-response","6","2.1.0","9128","807","
    <div style=""font-size:24px; line-height:1.5; padding:20px;"">
      The practice trial is complete.<br><br>
      You will now begin the main task.
    </div>
  ","0","","","","","","",""
"","","","","","html-button-response","7","2.1.0","9815","686","
      <div style=""font-size:24px; line-height:1.5; padding:20px;"">
        Block 1 of 2<br><br>
        This block has 3 trials.
      </div>
    ","0","","","","","","",""
"","","","","","emotion-grid","8","null","26416","","","","demo","main","1","1","1","[{""participant"":""demo"",""phase"":""main"",""block"":1,""trial"":1,""trial_in_block"":1,""image"":""peacock_1.jpg"",""final_img_pos"":""(320, 208)"",""posX"":320,""posY"":208,""grid_col"":3,""grid_row"":2,""introduction_order"":1},{""participant"":""demo"",""phase"":""main"",""block"":1,""trial"":1,""trial_in_block"":1,""image"":""dolphin_1.jpg"",""final_img_pos"":""(528, 416)"",""posX"":528,""posY"":416,""grid_col"":5,""grid_row"":4,""introduction_order"":2},{""participant"":""demo"",""phase"":""main"",""block"":1,""trial"":1,""trial_in_block"":1,""image"":""pigeon_1.jpg"",""final_img_pos"":""(528, 208)"",""posX"":528,""posY"":208,""grid_col"":5,""grid_row"":2,""introduction_order"":3},{""participant"":""demo"",""phase"":""main"",""block"":1,""trial"":1,""trial_in_block"":1,""image"":""fox_1.jpg"",""final_img_pos"":""(736, 208)"",""posX"":736,""posY"":208,""grid_col"":7,""grid_row"":2,""introduction_order"":4},{""participant"":""demo"",""phase"":""main"",""block"":1,""trial"":1,""trial_in_block"":1,""image"":""lion_1.jpg"",""final_img_pos"":""(632, 520)"",""posX"":632,""posY"":520,""grid_col"":6,""grid_row"":5,""introduction_order"":5},{""participant"":""demo"",""phase"":""main"",""block"":1,""trial"":1,""trial_in_block"":1,""image"":""sheep_1.jpg"",""final_img_pos"":""(840, 416)"",""posX"":840,""posY"":416,""grid_col"":8,""grid_row"":4,""introduction_order"":6},{""participant"":""demo"",""phase"":""main"",""block"":1,""trial"":1,""trial_in_block"":1,""image"":""horse_1.jpg"",""final_img_pos"":""(320, 312)"",""posX"":320,""posY"":312,""grid_col"":3,""grid_row"":3,""introduction_order"":7},{""participant"":""demo"",""phase"":""main"",""block"":1,""trial"":1,""trial_in_block"":1,""image"":""fish_1.jpg"",""final_img_pos"":""(424, 624)"",""posX"":424,""posY"":624,""grid_col"":4,""grid_row"":6,""introduction_order"":8},{""participant"":""demo"",""phase"":""main"",""block"":1,""trial"":1,""trial_in_block"":1,""image"":""squirrel_1.jpg"",""final_img_pos"":""(424, 312)"",""posX"":424,""posY"":312,""grid_col"":4,""grid_row"":3,""introduction_order"":9},{""participant"":""demo"",""phase"":""main"",""block"":1,""trial"":1,""trial_in_block"":1,""image"":""butterfly_1.jpg"",""final_img_pos"":""(840, 312)"",""posX"":840,""posY"":312,""grid_col"":8,""grid_row"":3,""introduction_order"":10},{""participant"":""demo"",""phase"":""main"",""block"":1,""trial"":1,""trial_in_block"":1,""image"":""ladybug_1.jpg"",""final_img_pos"":""(632, 104)"",""posX"":632,""posY"":104,""grid_col"":6,""grid_row"":1,""introduction_order"":11},{""participant"":""demo"",""phase"":""main"",""block"":1,""trial"":1,""trial_in_block"":1,""image"":""wolf_1.jpg"",""final_img_pos"":""(736, 416)"",""posX"":736,""posY"":416,""grid_col"":7,""grid_row"":4,""introduction_order"":12}]","[{""step"":0,""event"":""placement"",""image_index"":0,""image_name"":""peacock_1.jpg"",""trial"":1,""block"":1,""phase"":""main"",""x"":580,""y"":364,""grid_col"":5,""grid_row"":3},{""step"":1,""event"":""placement"",""image_index"":0,""image_name"":""peacock_1.jpg"",""trial"":1,""block"":1,""phase"":""main"",""x"":579,""y"":364,""grid_col"":5,""grid_row"":3},{""step"":2,""event"":""placement"",""image_index"":0,""image_name"":""peacock_1.jpg"",""trial"":1,""block"":1,""phase"":""main"",""x"":577,""y"":364,""grid_col"":5,""grid_row"":3},{""step"":3,""event"":""placement"",""image_index"":0,""image_name"":""peacock_1.jpg"",""trial"":1,""block"":1,""phase"":""main"",""x"":572,""y"":364,""grid_col"":5,""grid_row"":3},{""step"":4,""event"":""placement"",""image_index"":0,""image_name"":""peacock_1.jpg"",""trial"":1,""block"":1,""phase"":""main"",""x"":562,""y"":362,""grid_col"":5,""grid_row"":3},{""step"":5,""event"":""placement"",""image_index"":0,""image_name"":""peacock_1.jpg"",""trial"":1,""block"":1,""phase"":""main"",""x"":543,""y"":354,""grid_col"":5,""grid_row"":3},{""step"":6,""event"":""placement"",""image_index"":0,""image_name"":""peacock_1.jpg"",""trial"":1,""block"":1,""phase"":""main"",""x"":515,""y"":339,""grid_col"":5,""grid_row"":3},{""step"":7,""event"":""placement"",""image_index"":0,""image_name"":""peacock_1.jpg"",""trial"":1,""block"":1,""phase"":""main"",""x"":487,""y"":320,""grid_col"":5,""grid_row"":3},{""step"":8,""event"":""placement"",""image_index"":0,""image_name"":""peacock_1.jpg"",""trial"":1,""block"":1,""phase"":""main"",""x"":465,""y"":302,""grid_col"":4,""grid_row"":3},{""step"":9,""event"":""placement"",""image_index"":0,""image_name"":""peacock_1.jpg"",""trial"":1,""block"":1,""phase"":""main"",""x"":444,""y"":284,""grid_col"":4,""grid_row"":3},{""step"":10,""event"":""placement"",""image_index"":0,""image_name"":""peacock_1.jpg"",""trial"":1,""block"":1,""phase"":""main"",""x"":419,""y"":259,""grid_col"":4,""grid_row"":2},{""step"":11,""event"":""placement"",""image_index"":0,""image_name"":""peacock_1.jpg"",""trial"":1,""block"":1,""phase"":""main"",""x"":403,""y"":243,""grid_col"":4,""grid_row"":2},{""step"":12,""event"":""placement"",""image_index"":0,""image_name"":""peacock_1.jpg"",""trial"":1,""block"":1,""phase"":""main"",""x"":395,""y"":234,""grid_col"":4,""grid_row"":2},{""step"":13,""event"":""placement"",""image_index"":0,""image_name"":""peacock_1.jpg"",""trial"":1,""block"":1,""phase"":""main"",""x"":386,""y"":225,""grid_col"":4,""grid_row"":2},{""step"":14,""event"":""placement"",""image_index"":0,""image_name"":""peacock_1.jpg"",""trial"":1,""block"":1,""phase"":""main"",""x"":377,""y"":217,""grid_col"":4,""grid_row"":2},{""step"":15,""event"":""placement"",""image_index"":0,""image_name"":""peacock_1.jpg"",""trial"":1,""block"":1,""phase"":""main"",""x"":371,""y"":210,""grid_col"":3,""grid_row"":2},{""step"":16,""event"":""placement"",""image_index"":0,""image_name"":""peacock_1.jpg"",""trial"":1,""block"":1,""phase"":""main"",""x"":366,""y"":205,""grid_col"":3,""grid_row"":2},{""step"":17,""event"":""placement"",""image_index"":0,""image_name"":""peacock_1.jpg"",""trial"":1,""block"":1,""phase"":""main"",""x"":361,""y"":201,""grid_col"":3,""grid_row"":2},{""step"":18,""event"":""placement"",""image_index"":0,""image_name"":""peacock_1.jpg"",""trial"":1,""block"":1,""phase"":""main"",""x"":358,""y"":198,""grid_col"":3,""grid_row"":2},{""step"":19,""event"":""placement"",""image_index"":0,""image_name"":""peacock_1.jpg"",""trial"":1,""block"":1,""phase"":""main"",""x"":357,""y"":197,""grid_col"":3,""grid_row"":2},{""step"":20,""event"":""placement"",""image_index"":0,""image_name"":""peacock_1.jpg"",""trial"":1,""block"":1,""phase"":""main"",""x"":356,""y"":197,""grid_col"":3,""grid_row"":2},{""step"":21,""event"":""placement"",""image_index"":0,""image_name"":""peacock_1.jpg"",""trial"":1,""block"":1,""phase"":""main"",""x"":355,""y"":197,""grid_col"":3,""grid_row"":2},{""step"":22,""event"":""placement"",""image_index"":1,""image_name"":""dolphin_1.jpg"",""trial"":1,""block"":1,""phase"":""main"",""x"":580,""y"":364,""grid_col"":6,""grid_row"":4},{""step"":23,""event"":""placement"",""image_index"":1,""image_name"":""dolphin_1.jpg"",""trial"":1,""block"":1,""phase"":""main"",""x"":580,""y"":364,""grid_col"":5,""grid_row"":4},{""step"":24,""event"":""placement"",""image_index"":1,""image_name"":""dolphin_1.jpg"",""trial"":1,""block"":1,""phase"":""main"",""x"":578,""y"":364,""grid_col"":5,""grid_row"":4},{""step"":25,""event"":""placement"",""image_index"":1,""image_name"":""dolphin_1.jpg"",""trial"":1,""block"":1,""phase"":""main"",""x"":574,""y"":364,""grid_col"":5,""grid_row"":4},{""step"":26,""event"":""placement"",""image_index"":1,""image_name"":""dolphin_1.jpg"",""trial"":1,""block"":1,""phase"":""main"",""x"":568,""y"":364,""grid_col"":5,""grid_row"":4},{""step"":27,""event"":""placement"",""image_index"":1,""image_name"":""dolphin_1.jpg"",""trial"":1,""block"":1,""phase"":""main"",""x"":563,""y"":364,""grid_col"":5,""grid_row"":4},{""step"":28,""event"":""placement"",""image_index"":1,""image_name"":""dolphin_1.jpg"",""trial"":1,""block"":1,""phase"":""main"",""x"":556,""y"":364,""grid_col"":5,""grid_row"":4},{""step"":29,""event"":""placement"",""image_index"":1,""image_name"":""dolphin_1.jpg"",""trial"":1,""block"":1,""phase"":""main"",""x"":547,""y"":364,""grid_col"":5,""grid_row"":4},{""step"":30,""event"":""placement"",""image_index"":1,""image_name"":""dolphin_1.jpg"",""trial"":1,""block"":1,""phase"":""main"",""x"":538,""y"":364,""grid_col"":5,""grid_row"":4},{""step"":31,""event"":""placement"",""image_index"":1,""image_name"":""dolphin_1.jpg"",""trial"":1,""block"":1,""phase"":""main"",""x"":526,""y"":364,""grid_col"":5,""grid_row"":4},{""step"":32,""event"":""placement"",""image_index"":1,""image_name"":""dolphin_1.jpg"",""trial"":1,""block"":1,""phase"":""main"",""x"":513,""y"":364,""grid_col"":5,""grid_row"":4},{""step"":33,""event"":""placement"",""image_index"":1,""image_name"":""dolphin_1.jpg"",""trial"":1,""block"":1,""phase"":""main"",""x"":499,""y"":364,""grid_col"":5,""grid_row"":4},{""step"":34,""event"":""placement"",""image_index"":1,""image_name"":""dolphin_1.jpg"",""trial"":1,""block"":1,""phase"":""main"",""x"":484,""y"":364,""grid_col"":5,""grid_row"":4},{""step"":35,""event"":""placement"",""image_index"":1,""image_name"":""dolphin_1.jpg"",""trial"":1,""block"":1,""phase"":""main"",""x"":468,""y"":364,""grid_col"":4,""grid_row"":4},{""step"":36,""event"":""placement"",""image_index"":1,""image_name"":""dolphin_1.jpg"",""trial"":1,""block"":1,""phase"":""main"",""x"":453,""y"":364,""grid_col"":4,""grid_row"":4},{""step"":37,""event"":""placement"",""image_index"":1,""image_name"":""dolphin_1.jpg"",""trial"":1,""block"":1,""phase"":""main"",""x"":439,""y"":366,""grid_col"":4,""grid_row"":4},{""step"":38,""event"":""placement"",""image_index"":1,""image_name"":""dolphin_1.jpg"",""trial"":1,""block"":1,""phase"":""main"",""x"":429,""y"":368,""grid_col"":4,""grid_row"":4},{""step"":39,""event"":""placement"",""image_index"":1,""image_name"":""dolphin_1.jpg"",""trial"":1,""block"":1,""phase"":""main"",""x"":424,""y"":370,""grid_col"":4,""grid_row"":4},{""step"":40,""event"":""placement"",""image_index"":1,""image_name"":""dolphin_1.jpg"",""trial"":1,""block"":1,""phase"":""main"",""x"":416,""y"":373,""grid_col"":4,""grid_row"":4},{""step"":41,""event"":""placement"",""image_index"":1,""image_name"":""dolphin_1.jpg"",""trial"":1,""block"":1,""phase"":""main"",""x"":407,""y"":376,""grid_col"":4,""grid_row"":4},{""step"":42,""event"":""placement"",""image_index"":1,""image_name"":""dolphin_1.jpg"",""trial"":1,""block"":1,""phase"":""main"",""x"":398,""y"":379,""grid_col"":4,""grid_row"":4},{""step"":43,""event"":""placement"",""image_index"":1,""image_name"":""dolphin_1.jpg"",""trial"":1,""block"":1,""phase"":""main"",""x"":391,""y"":382,""grid_col"":4,""grid_row"":4},{""step"":44,""event"":""placement"",""image_index"":1,""image_name"":""dolphin_1.jpg"",""trial"":1,""block"":1,""phase"":""main"",""x"":384,""y"":385,""grid_col"":4,""grid_row"":4},{""step"":45,""event"":""placement"",""image_index"":1,""image_name"":""dolphin_1.jpg"",""trial"":1,""block"":1,""phase"":""main"",""x"":378,""y"":389,""grid_col"":4,""grid_row"":4},{""step"":46,""event"":""placement"",""image_index"":1,""image_name"":""dolphin_1.jpg"",""trial"":1,""block"":1,""phase"":""main"",""x"":374,""y"":391,""grid_col"":4,""grid_row"":4},{""step"":47,""event"":""placement"",""image_index"":1,""image_name"":""dolphin_1.jpg"",""trial"":1,""block"":1,""phase"":""main"",""x"":371,""y"":393,""grid_col"":3,""grid_row"":4},{""step"":48,""event"":""placement"",""image_index"":1,""image_name"":""dolphin_1.jpg"",""trial"":1,""block"":1,""phase"":""main"",""x"":367,""y"":395,""grid_col"":3,""grid_row"":4},{""step"":49,""event"":""placement"",""image_index"":1,""image_name"":""dolphin_1.jpg"",""trial"":1,""block"":1,""phase"":""main"",""x"":365,""y"":397,""grid_col"":3,""grid_row"":4},{""step"":50,""event"":""placement"",""image_index"":1,""image_name"":""dolphin_1.jpg"",""trial"":1,""block"":1,""phase"":""main"",""x"":364,""y"":398,""grid_col"":3,""grid_row"":4},{""step"":51,""event"":""placement"",""image_index"":1,""image_name"":""dolphin_1.jpg"",""trial"":1,""block"":1,""phase"":""main"",""x"":362,""y"":399,""grid_col"":3,""grid_row"":4},{""step"":52,""event"":""placement"",""image_index"":1,""image_name"":""dolphin_1.jpg"",""trial"":1,""block"":1,""phase"":""main"",""x"":362,""y"":399,""grid_col"":3,""grid_row"":4},{""step"":53,""event"":""placement"",""image_index"":1,""image_name"":""dolphin_1.jpg"",""trial"":1,""block"":1,""phase"":""main"",""x"":361,""y"":399,""grid_col"":3,""grid_row"":4},{""step"":54,""event"":""placement"",""image_index"":2,""image_name"":""pigeon_1.jpg"",""trial"":1,""block"":1,""phase"":""main"",""x"":580,""y"":364,""grid_col"":6,""grid_row"":3},{""step"":55,""event"":""placement"",""image_index"":2,""image_name"":""pigeon_1.jpg"",""trial"":1,""block"":1,""phase"":""main"",""x"":581,""y"":364,""grid_col"":6,""grid_row"":3},{""step"":56,""event"":""placement"",""image_index"":2,""image_name"":""pigeon_1.jpg"",""trial"":1,""block"":1,""phase"":""main"",""x"":581,""y"":362,""grid_col"":6,""grid_row"":3},{""step"":57,""event"":""placement"",""image_index"":2,""image_name"":""pigeon_1.jpg"",""trial"":1,""block"":1,""phase"":""main"",""x"":581,""y"":360,""grid_col"":6,""grid_row"":3},{""step"":58,""event"":""placement"",""image_index"":2,""image_name"":""pigeon_1.jpg"",""trial"":1,""block"":1,""phase"":""main"",""x"":579,""y"":353,""grid_col"":5,""grid_row"":3},{""step"":59,""event"":""placement"",""image_index"":2,""image_name"":""pigeon_1.jpg"",""trial"":1,""block"":1,""phase"":""main"",""x"":577,""y"":340,""grid_col"":5,""grid_row"":3},{""step"":60,""event"":""placement"",""image_index"":2,""image_name"":""pigeon_1.jpg"",""trial"":1,""block"":1,""phase"":""main"",""x"":574,""y"":317,""grid_col"":5,""grid_row"":3},{""step"":61,""event"":""placement"",""image_index"":2,""image_name"":""pigeon_1.jpg"",""trial"":1,""block"":1,""phase"":""main"",""x"":570,""y"":291,""grid_col"":5,""grid_row"":3},{""step"":62,""event"":""placement"",""image_index"":2,""image_name"":""pigeon_1.jpg"",""trial"":1,""block"":1,""phase"":""main"",""x"":570,""y"":265,""grid_col"":5,""grid_row"":3},{""step"":63,""event"":""placement"",""image_index"":2,""image_name"":""pigeon_1.jpg"",""trial"":1,""block"":1,""phase"":""main"",""x"":569,""y"":241,""grid_col"":5,""grid_row"":2},{""step"":64,""event"":""placement"",""image_index"":2,""image_name"":""pigeon_1.jpg"",""trial"":1,""block"":1,""phase"":""main"",""x"":569,""y"":227,""grid_col"":5,""grid_row"":2},{""step"":65,""event"":""placement"",""image_index"":2,""image_name"":""pigeon_1.jpg"",""trial"":1,""block"":1,""phase"":""main"",""x"":569,""y"":211,""grid_col"":5,""grid_row"":2},{""step"":66,""event"":""placement"",""image_index"":2,""image_name"":""pigeon_1.jpg"",""trial"":1,""block"":1,""phase"":""main"",""x"":569,""y"":199,""grid_col"":5,""grid_row"":2},{""step"":67,""event"":""placement"",""image_index"":2,""image_name"":""pigeon_1.jpg"",""trial"":1,""block"":1,""phase"":""main"",""x"":569,""y"":191,""grid_col"":5,""grid_row"":2},{""step"":68,""event"":""placement"",""image_index"":2,""image_name"":""pigeon_1.jpg"",""trial"":1,""block"":1,""phase"":""main"",""x"":569,""y"":184,""grid_col"":5,""grid_row"":2},{""step"":69,""event"":""placement"",""image_index"":2,""image_name"":""pigeon_1.jpg"",""trial"":1,""block"":1,""phase"":""main"",""x"":569,""y"":181,""grid_col"":5,""grid_row"":2},{""step"":70,""event"":""placement"",""image_index"":2,""image_name"":""pigeon_1.jpg"",""trial"":1,""block"":1,""phase"":""main"",""x"":569,""y"":178,""grid_col"":5,""grid_row"":2},{""step"":71,""event"":""placement"",""image_index"":2,""image_name"":""pigeon_1.jpg"",""trial"":1,""block"":1,""phase"":""main"",""x"":569,""y"":176,""grid_col"":5,""grid_row"":2},{""step"":72,""event"":""placement"",""image_index"":3,""image_name"":""fox_1.jpg"",""trial"":1,""block"":1,""phase"":""main"",""x"":580,""y"":364,""grid_col"":5,""grid_row"":3},{""step"":73,""event"":""placement"",""image_index"":3,""image_name"":""fox_1.jpg"",""trial"":1,""block"":1,""phase"":""main"",""x"":580,""y"":363,""grid_col"":5,""grid_row"":3},{""step"":74,""event"":""placement"",""image_index"":3,""image_name"":""fox_1.jpg"",""trial"":1,""block"":1,""phase"":""main"",""x"":582,""y"":362,""grid_col"":6,""grid_row"":3},{""step"":75,""event"":""placement"",""image_index"":3,""image_name"":""fox_1.jpg"",""trial"":1,""block"":1,""phase"":""main"",""x"":588,""y"":359,""grid_col"":6,""grid_row"":3},{""step"":76,""event"":""placement"",""image_index"":3,""image_name"":""fox_1.jpg"",""trial"":1,""block"":1,""phase"":""main"",""x"":597,""y"":354,""grid_col"":6,""grid_row"":3},{""step"":77,""event"":""placement"",""image_index"":3,""image_name"":""fox_1.jpg"",""trial"":1,""block"":1,""phase"":""main"",""x"":610,""y"":346,""grid_col"":6,""grid_row"":3},{""step"":78,""event"":""placement"",""image_index"":3,""image_name"":""fox_1.jpg"",""trial"":1,""block"":1,""phase"":""main"",""x"":627,""y"":336,""grid_col"":6,""grid_row"":3},{""step"":79,""event"":""placement"",""image_index"":3,""image_name"":""fox_1.jpg"",""trial"":1,""block"":1,""phase"":""main"",""x"":650,""y"":323,""grid_col"":6,""grid_row"":3},{""step"":80,""event"":""placement"",""image_index"":3,""image_name"":""fox_1.jpg"",""trial"":1,""block"":1,""phase"":""main"",""x"":677,""y"":307,""grid_col"":6,""grid_row"":3},{""step"":81,""event"":""placement"",""image_index"":3,""image_name"":""fox_1.jpg"",""trial"":1,""block"":1,""phase"":""main"",""x"":705,""y"":291,""grid_col"":7,""grid_row"":3},{""step"":82,""event"":""placement"",""image_index"":3,""image_name"":""fox_1.jpg"",""trial"":1,""block"":1,""phase"":""main"",""x"":725,""y"":279,""grid_col"":7,""grid_row"":3},{""step"":83,""event"":""placement"",""image_index"":3,""image_name"":""fox_1.jpg"",""trial"":1,""block"":1,""phase"":""main"",""x"":742,""y"":269,""grid_col"":7,""grid_row"":3},{""step"":84,""event"":""placement"",""image_index"":3,""image_name"":""fox_1.jpg"",""trial"":1,""block"":1,""phase"":""main"",""x"":755,""y"":262,""grid_col"":7,""grid_row"":3},{""step"":85,""event"":""placement"",""image_index"":3,""image_name"":""fox_1.jpg"",""trial"":1,""block"":1,""phase"":""main"",""x"":760,""y"":260,""grid_col"":7,""grid_row"":2},{""step"":86,""event"":""placement"",""image_index"":3,""image_name"":""fox_1.jpg"",""trial"":1,""block"":1,""phase"":""main"",""x"":764,""y"":257,""grid_col"":7,""grid_row"":2},{""step"":87,""event"":""placement"",""image_index"":3,""image_name"":""fox_1.jpg"",""trial"":1,""block"":1,""phase"":""main"",""x"":769,""y"":254,""grid_col"":7,""grid_row"":2},{""step"":88,""event"":""placement"",""image_index"":3,""image_name"":""fox_1.jpg"",""trial"":1,""block"":1,""phase"":""main"",""x"":774,""y"":252,""grid_col"":7,""grid_row"":2},{""step"":89,""event"":""placement"",""image_index"":3,""image_name"":""fox_1.jpg"",""trial"":1,""block"":1,""phase"":""main"",""x"":777,""y"":250,""grid_col"":7,""grid_row"":2},{""step"":90,""event"":""placement"",""image_index"":3,""image_name"":""fox_1.jpg"",""trial"":1,""block"":1,""phase"":""main"",""x"":778,""y"":249,""grid_col"":7,""grid_row"":2},{""step"":91,""event"":""placement"",""image_index"":4,""image_name"":""lion_1.jpg"",""trial"":1,""block"":1,""phase"":""main"",""x"":581,""y"":364,""grid_col"":6,""grid_row"":4},{""step"":92,""event"":""placement"",""image_index"":4,""image_name"":""lion_1.jpg"",""trial"":1,""block"":1,""phase"":""main"",""x"":586,""y"":364,""grid_col"":6,""grid_row"":4},{""step"":93,""event"":""placement"",""image_index"":4,""image_name"":""lion_1.jpg"",""trial"":1,""block"":1,""phase"":""main"",""x"":598,""y"":364,""grid_col"":6,""grid_row"":4},{""step"":94,""event"":""placement"",""image_index"":4,""image_name"":""lion_1.jpg"",""trial"":1,""block"":1,""phase"":""main"",""x"":614,""y"":364,""grid_col"":6,""grid_row"":4},{""step"":95,""event"":""placement"",""image_index"":4,""image_name"":""lion_1.jpg"",""trial"":1,""block"":1,""phase"":""main"",""x"":625,""y"":405,""grid_col"":6,""grid_row"":4},{""step"":96,""event"":""placement"",""image_index"":4,""image_name"":""lion_1.jpg"",""trial"":1,""block"":1,""phase"":""main"",""x"":614,""y"":405,""grid_col"":6,""grid_row"":4},{""step"":97,""event"":""placement"",""image_index"":4,""image_name"":""lion_1.jpg"",""trial"":1,""block"":1,""phase"":""main"",""x"":595,""y"":405,""grid_col"":6,""grid_row"":4},{""step"":98,""event"":""placement"",""image_index"":4,""image_name"":""lion_1.jpg"",""trial"":1,""block"":1,""phase"":""main"",""x"":580,""y"":405,""grid_col"":6,""grid_row"":4},{""step"":99,""event"":""placement"",""image_index"":4,""image_name"":""lion_1.jpg"",""trial"":1,""block"":1,""phase"":""main"",""x"":576,""y"":405,""grid_col"":5,""grid_row"":4},{""step"":100,""event"":""placement"",""image_index"":4,""image_name"":""lion_1.jpg"",""trial"":1,""block"":1,""phase"":""main"",""x"":566,""y"":405,""grid_col"":5,""grid_row"":4},{""step"":101,""event"":""placement"",""image_index"":4,""image_name"":""lion_1.jpg"",""trial"":1,""block"":1,""phase"":""main"",""x"":560,""y"":404,""grid_col"":5,""grid_row"":4},{""step"":102,""event"":""placement"",""image_index"":4,""image_name"":""lion_1.jpg"",""trial"":1,""block"":1,""phase"":""main"",""x"":557,""y"":404,""grid_col"":5,""grid_row"":4},{""step"":103,""event"":""placement"",""image_index"":4,""image_name"":""lion_1.jpg"",""trial"":1,""block"":1,""phase"":""main"",""x"":554,""y"":403,""grid_col"":5,""grid_row"":4},{""step"":104,""event"":""placement"",""image_index"":4,""image_name"":""lion_1.jpg"",""trial"":1,""block"":1,""phase"":""main"",""x"":552,""y"":402,""grid_col"":5,""grid_row"":4},{""step"":105,""event"":""placement"",""image_index"":4,""image_name"":""lion_1.jpg"",""trial"":1,""block"":1,""phase"":""main"",""x"":551,""y"":402,""grid_col"":5,""grid_row"":4},{""step"":106,""event"":""placement"",""image_index"":4,""image_name"":""lion_1.jpg"",""trial"":1,""block"":1,""phase"":""main"",""x"":551,""y"":402,""grid_col"":5,""grid_row"":4},{""step"":107,""event"":""placement"",""image_index"":4,""image_name"":""lion_1.jpg"",""trial"":1,""block"":1,""phase"":""main"",""x"":551,""y"":401,""grid_col"":5,""grid_row"":4},{""step"":108,""event"":""placement"",""image_index"":4,""image_name"":""lion_1.jpg"",""trial"":1,""block"":1,""phase"":""main"",""x"":551,""y"":401,""grid_col"":5,""grid_row"":4},{""step"":109,""event"":""placement"",""image_index"":4,""image_name"":""lion_1.jpg"",""trial"":1,""block"":1,""phase"":""main"",""x"":551,""y"":401,""grid_col"":5,""grid_row"":4},{""step"":110,""event"":""placement"",""image_index"":4,""image_name"":""lion_1.jpg"",""trial"":1,""block"":1,""phase"":""main"",""x"":551,""y"":400,""grid_col"":5,""grid_row"":4},{""step"":111,""event"":""placement"",""image_index"":4,""image_name"":""lion_1.jpg"",""trial"":1,""block"":1,""phase"":""main"",""x"":551,""y"":400,""grid_col"":5,""grid_row"":4},{""step"":112,""event"":""placement"",""image_index"":4,""image_name"":""lion_1.jpg"",""trial"":1,""block"":1,""phase"":""main"",""x"":551,""y"":400,""grid_col"":5,""grid_row"":4},{""step"":113,""event"":""placement"",""image_index"":4,""image_name"":""lion_1.jpg"",""trial"":1,""block"":1,""phase"":""main"",""x"":551,""y"":400,""grid_col"":5,""grid_row"":4},{""step"":114,""event"":""placement"",""image_index"":4,""image_name"":""lion_1.jpg"",""trial"":1,""block"":1,""phase"":""main"",""x"":551,""y"":399,""grid_col"":5,""grid_row"":4},{""step"":115,""event"":""placement"",""image_index"":4,""image_name"":""lion_1.jpg"",""trial"":1,""block"":1,""phase"":""main"",""x"":551,""y"":399,""grid_col"":5,""grid_row"":4},{""step"":116,""event"":""placement"",""image_index"":4,""image_name"":""lion_1.jpg"",""trial"":1,""block"":1,""phase"":""main"",""x"":552,""y"":399,""grid_col"":5,""grid_row"":4},{""step"":117,""event"":""placement"",""image_index"":4,""image_name"":""lion_1.jpg"",""trial"":1,""block"":1,""phase"":""main"",""x"":552,""y"":398,""grid_col"":5,""grid_row"":4},{""step"":118,""event"":""placement"",""image_index"":4,""image_name"":""lion_1.jpg"",""trial"":1,""block"":1,""phase"":""main"",""x"":553,""y"":397,""grid_col"":5,""grid_row"":4},{""step"":119,""event"":""placement"",""image_index"":4,""image_name"":""lion_1.jpg"",""trial"":1,""block"":1,""phase"":""main"",""x"":553,""y"":397,""grid_col"":5,""grid_row"":4},{""step"":120,""event"":""placement"",""image_index"":4,""image_name"":""lion_1.jpg"",""trial"":1,""block"":1,""phase"":""main"",""x"":553,""y"":396,""grid_col"":5,""grid_row"":4},{""step"":121,""event"":""placement"",""image_index"":4,""image_name"":""lion_1.jpg"",""trial"":1,""block"":1,""phase"":""main"",""x"":554,""y"":396,""grid_col"":5,""grid_row"":4},{""step"":122,""event"":""placement"",""image_index"":4,""image_name"":""lion_1.jpg"",""trial"":1,""block"":1,""phase"":""main"",""x"":554,""y"":396,""grid_col"":5,""grid_row"":4},{""step"":123,""event"":""placement"",""image_index"":4,""image_name"":""lion_1.jpg"",""trial"":1,""block"":1,""phase"":""main"",""x"":554,""y"":396,""grid_col"":5,""grid_row"":4},{""step"":124,""event"":""placement"",""image_index"":4,""image_name"":""lion_1.jpg"",""trial"":1,""block"":1,""phase"":""main"",""x"":555,""y"":396,""grid_col"":5,""grid_row"":4},{""step"":125,""event"":""placement"",""image_index"":4,""image_name"":""lion_1.jpg"",""trial"":1,""block"":1,""phase"":""main"",""x"":555,""y"":396,""grid_col"":5,""grid_row"":4},{""step"":126,""event"":""placement"",""image_index"":4,""image_name"":""lion_1.jpg"",""trial"":1,""block"":1,""phase"":""main"",""x"":555,""y"":396,""grid_col"":5,""grid_row"":4},{""step"":127,""event"":""placement"",""image_index"":4,""image_name"":""lion_1.jpg"",""trial"":1,""block"":1,""phase"":""main"",""x"":556,""y"":396,""grid_col"":5,""grid_row"":4},{""step"":128,""event"":""placement"",""image_index"":4,""image_name"":""lion_1.jpg"",""trial"":1,""block"":1,""phase"":""main"",""x"":557,""y"":396,""grid_col"":5,""grid_row"":4},{""step"":129,""event"":""placement"",""image_index"":4,""image_name"":""lion_1.jpg"",""trial"":1,""block"":1,""phase"":""main"",""x"":559,""y"":396,""grid_col"":5,""grid_row"":4},{""step"":130,""event"":""placement"",""image_index"":4,""image_name"":""lion_1.jpg"",""trial"":1,""block"":1,""phase"":""main"",""x"":562,""y"":398,""grid_col"":5,""grid_row"":4},{""step"":131,""event"":""placement"",""image_index"":4,""image_name"":""lion_1.jpg"",""trial"":1,""block"":1,""phase"":""main"",""x"":566,""y"":400,""grid_col"":5,""grid_row"":4},{""step"":132,""event"":""placement"",""image_index"":4,""image_name"":""lion_1.jpg"",""trial"":1,""block"":1,""phase"":""main"",""x"":571,""y"":404,""grid_col"":5,""grid_row"":4},{""step"":133,""event"":""placement"",""image_index"":4,""image_name"":""lion_1.jpg"",""trial"":1,""block"":1,""phase"":""main"",""x"":576,""y"":409,""grid_col"":5,""grid_row"":4},{""step"":134,""event"":""placement"",""image_index"":4,""image_name"":""lion_1.jpg"",""trial"":1,""block"":1,""phase"":""main"",""x"":583,""y"":419,""grid_col"":6,""grid_row"":4},{""step"":135,""event"":""placement"",""image_index"":4,""image_name"":""lion_1.jpg"",""trial"":1,""block"":1,""phase"":""main"",""x"":588,""y"":426,""grid_col"":6,""grid_row"":4},{""step"":136,""event"":""placement"",""image_index"":4,""image_name"":""lion_1.jpg"",""trial"":1,""block"":1,""phase"":""main"",""x"":591,""y"":436,""grid_col"":6,""grid_row"":4},{""step"":137,""event"":""placement"",""image_index"":4,""image_name"":""lion_1.jpg"",""trial"":1,""block"":1,""phase"":""main"",""x"":592,""y"":441,""grid_col"":6,""grid_row"":4},{""step"":138,""event"":""placement"",""image_index"":4,""image_name"":""lion_1.jpg"",""trial"":1,""block"":1,""phase"":""main"",""x"":594,""y"":449,""grid_col"":6,""grid_row"":4},{""step"":139,""event"":""placement"",""image_index"":4,""image_name"":""lion_1.jpg"",""trial"":1,""block"":1,""phase"":""main"",""x"":595,""y"":452,""grid_col"":6,""grid_row"":4},{""step"":140,""event"":""placement"",""image_index"":4,""image_name"":""lion_1.jpg"",""trial"":1,""block"":1,""phase"":""main"",""x"":596,""y"":457,""grid_col"":6,""grid_row"":4},{""step"":141,""event"":""placement"",""image_index"":4,""image_name"":""lion_1.jpg"",""trial"":1,""block"":1,""phase"":""main"",""x"":596,""y"":462,""grid_col"":6,""grid_row"":4},{""step"":142,""event"":""placement"",""image_index"":4,""image_name"":""lion_1.jpg"",""trial"":1,""block"":1,""phase"":""main"",""x"":596,""y"":465,""grid_col"":6,""grid_row"":4},{""step"":143,""event"":""placement"",""image_index"":4,""image_name"":""lion_1.jpg"",""trial"":1,""block"":1,""phase"":""main"",""x"":596,""y"":466,""grid_col"":6,""grid_row"":4},{""step"":144,""event"":""placement"",""image_index"":4,""image_name"":""lion_1.jpg"",""trial"":1,""block"":1,""phase"":""main"",""x"":596,""y"":467,""grid_col"":6,""grid_row"":4},{""step"":145,""event"":""placement"",""image_index"":4,""image_name"":""lion_1.jpg"",""trial"":1,""block"":1,""phase"":""main"",""x"":596,""y"":468,""grid_col"":6,""grid_row"":5},{""step"":146,""event"":""placement"",""image_index"":4,""image_name"":""lion_1.jpg"",""trial"":1,""block"":1,""phase"":""main"",""x"":596,""y"":468,""grid_col"":6,""grid_row"":5},{""step"":147,""event"":""placement"",""image_index"":4,""image_name"":""lion_1.jpg"",""trial"":1,""block"":1,""phase"":""main"",""x"":596,""y"":469,""grid_col"":6,""grid_row"":5},{""step"":148,""event"":""placement"",""image_index"":5,""image_name"":""sheep_1.jpg"",""trial"":1,""block"":1,""phase"":""main"",""x"":581,""y"":364,""grid_col"":6,""grid_row"":4},{""step"":149,""event"":""placement"",""image_index"":5,""image_name"":""sheep_1.jpg"",""trial"":1,""block"":1,""phase"":""main"",""x"":584,""y"":364,""grid_col"":6,""grid_row"":4},{""step"":150,""event"":""placement"",""image_index"":5,""image_name"":""sheep_1.jpg"",""trial"":1,""block"":1,""phase"":""main"",""x"":596,""y"":364,""grid_col"":6,""grid_row"":4},{""step"":151,""event"":""placement"",""image_index"":5,""image_name"":""sheep_1.jpg"",""trial"":1,""block"":1,""phase"":""main"",""x"":613,""y"":364,""grid_col"":6,""grid_row"":4},{""step"":152,""event"":""placement"",""image_index"":5,""image_name"":""sheep_1.jpg"",""trial"":1,""block"":1,""phase"":""main"",""x"":633,""y"":364,""grid_col"":6,""grid_row"":4},{""step"":153,""event"":""placement"",""image_index"":5,""image_name"":""sheep_1.jpg"",""trial"":1,""block"":1,""phase"":""main"",""x"":654,""y"":364,""grid_col"":6,""grid_row"":4},{""step"":154,""event"":""placement"",""image_index"":5,""image_name"":""sheep_1.jpg"",""trial"":1,""block"":1,""phase"":""main"",""x"":678,""y"":364,""grid_col"":6,""grid_row"":4},{""step"":155,""event"":""placement"",""image_index"":5,""image_name"":""sheep_1.jpg"",""trial"":1,""block"":1,""phase"":""main"",""x"":710,""y"":364,""grid_col"":7,""grid_row"":4},{""step"":156,""event"":""placement"",""image_index"":5,""image_name"":""sheep_1.jpg"",""trial"":1,""block"":1,""phase"":""main"",""x"":743,""y"":364,""grid_col"":7,""grid_row"":4},{""step"":157,""event"":""placement"",""image_index"":5,""image_name"":""sheep_1.jpg"",""trial"":1,""block"":1,""phase"":""main"",""x"":769,""y"":364,""grid_col"":7,""grid_row"":4},{""step"":158,""event"":""placement"",""image_index"":5,""image_name"":""sheep_1.jpg"",""trial"":1,""block"":1,""phase"":""main"",""x"":791,""y"":364,""grid_col"":8,""grid_row"":4},{""step"":159,""event"":""placement"",""image_index"":5,""image_name"":""sheep_1.jpg"",""trial"":1,""block"":1,""phase"":""main"",""x"":813,""y"":364,""grid_col"":8,""grid_row"":4},{""step"":160,""event"":""placement"",""image_index"":5,""image_name"":""sheep_1.jpg"",""trial"":1,""block"":1,""phase"":""main"",""x"":828,""y"":364,""grid_col"":8,""grid_row"":4},{""step"":161,""event"":""placement"",""image_index"":5,""image_name"":""sheep_1.jpg"",""trial"":1,""block"":1,""phase"":""main"",""x"":838,""y"":364,""grid_col"":8,""grid_row"":4},{""step"":162,""event"":""placement"",""image_index"":5,""image_name"":""sheep_1.jpg"",""trial"":1,""block"":1,""phase"":""main"",""x"":849,""y"":364,""grid_col"":8,""grid_row"":4},{""step"":163,""event"":""placement"",""image_index"":5,""image_name"":""sheep_1.jpg"",""trial"":1,""block"":1,""phase"":""main"",""x"":855,""y"":364,""grid_col"":8,""grid_row"":4},{""step"":164,""event"":""placement"",""image_index"":5,""image_name"":""sheep_1.jpg"",""trial"":1,""block"":1,""phase"":""main"",""x"":858,""y"":364,""grid_col"":8,""grid_row"":4},{""step"":165,""event"":""placement"",""image_index"":5,""image_name"":""sheep_1.jpg"",""trial"":1,""block"":1,""phase"":""main"",""x"":861,""y"":364,""grid_col"":8,""grid_row"":4},{""step"":166,""event"":""placement"",""image_index"":5,""image_name"":""sheep_1.jpg"",""trial"":1,""block"":1,""phase"":""main"",""x"":864,""y"":365,""grid_col"":8,""grid_row"":4},{""step"":167,""event"":""placement"",""image_index"":5,""image_name"":""sheep_1.jpg"",""trial"":1,""block"":1,""phase"":""main"",""x"":866,""y"":365,""grid_col"":8,""grid_row"":4},{""step"":168,""event"":""placement"",""image_index"":5,""image_name"":""sheep_1.jpg"",""trial"":1,""block"":1,""phase"":""main"",""x"":868,""y"":365,""grid_col"":8,""grid_row"":4},{""step"":169,""event"":""placement"",""image_index"":5,""image_name"":""sheep_1.jpg"",""trial"":1,""block"":1,""phase"":""main"",""x"":868,""y"":365,""grid_col"":8,""grid_row"":4},{""step"":170,""event"":""placement"",""image_index"":5,""image_name"":""sheep_1.jpg"",""trial"":1,""block"":1,""phase"":""main"",""x"":869,""y"":365,""grid_col"":8,""grid_row"":4},{""step"":171,""event"":""placement"",""image_index"":6,""image_name"":""horse_1.jpg"",""trial"":1,""block"":1,""phase"":""main"",""x"":580,""y"":364,""grid_col"":5,""grid_row"":4},{""step"":172,""event"":""placement"",""image_index"":6,""image_name"":""horse_1.jpg"",""trial"":1,""block"":1,""phase"":""main"",""x"":578,""y"":364,""grid_col"":5,""grid_row"":4},{""step"":173,""event"":""placement"",""image_index"":6,""image_name"":""horse_1.jpg"",""trial"":1,""block"":1,""phase"":""main"",""x"":575,""y"":364,""grid_col"":5,""grid_row"":4},{""step"":174,""event"":""placement"",""image_index"":6,""image_name"":""horse_1.jpg"",""trial"":1,""block"":1,""phase"":""main"",""x"":567,""y"":366,""grid_col"":5,""grid_row"":4},{""step"":175,""event"":""placement"",""image_index"":6,""image_name"":""horse_1.jpg"",""trial"":1,""block"":1,""phase"":""main"",""x"":555,""y"":371,""grid_col"":5,""grid_row"":4},{""step"":176,""event"":""placement"",""image_index"":6,""image_name"":""horse_1.jpg"",""trial"":1,""block"":1,""phase"":""main"",""x"":543,""y"":378,""grid_col"":5,""grid_row"":4},{""step"":177,""event"":""placement"",""image_index"":6,""image_name"":""horse_1.jpg"",""trial"":1,""block"":1,""phase"":""main"",""x"":532,""y"":385,""grid_col"":5,""grid_row"":4},{""step"":178,""event"":""placement"",""image_index"":6,""image_name"":""horse_1.jpg"",""trial"":1,""block"":1,""phase"":""main"",""x"":521,""y"":394,""grid_col"":5,""grid_row"":4},{""step"":179,""event"":""placement"",""image_index"":6,""image_name"":""horse_1.jpg"",""trial"":1,""block"":1,""phase"":""main"",""x"":504,""y"":406,""grid_col"":5,""grid_row"":4},{""step"":180,""event"":""placement"",""image_index"":6,""image_name"":""horse_1.jpg"",""trial"":1,""block"":1,""phase"":""main"",""x"":486,""y"":421,""grid_col"":5,""grid_row"":4},{""step"":181,""event"":""placement"",""image_index"":6,""image_name"":""horse_1.jpg"",""trial"":1,""block"":1,""phase"":""main"",""x"":467,""y"":438,""grid_col"":4,""grid_row"":4},{""step"":182,""event"":""placement"",""image_index"":6,""image_name"":""horse_1.jpg"",""trial"":1,""block"":1,""phase"":""main"",""x"":446,""y"":456,""grid_col"":4,""grid_row"":4},{""step"":183,""event"":""placement"",""image_index"":6,""image_name"":""horse_1.jpg"",""trial"":1,""block"":1,""phase"":""main"",""x"":426,""y"":477,""grid_col"":4,""grid_row"":5},{""step"":184,""event"":""placement"",""image_index"":6,""image_name"":""horse_1.jpg"",""trial"":1,""block"":1,""phase"":""main"",""x"":411,""y"":492,""grid_col"":4,""grid_row"":5},{""step"":185,""event"":""placement"",""image_index"":6,""image_name"":""horse_1.jpg"",""trial"":1,""block"":1,""phase"":""main"",""x"":399,""y"":507,""grid_col"":4,""grid_row"":5},{""step"":186,""event"":""placement"",""image_index"":6,""image_name"":""horse_1.jpg"",""trial"":1,""block"":1,""phase"":""main"",""x"":389,""y"":518,""grid_col"":4,""grid_row"":5},{""step"":187,""event"":""placement"",""image_index"":6,""image_name"":""horse_1.jpg"",""trial"":1,""block"":1,""phase"":""main"",""x"":382,""y"":526,""grid_col"":4,""grid_row"":5},{""step"":188,""event"":""placement"",""image_index"":6,""image_name"":""horse_1.jpg"",""trial"":1,""block"":1,""phase"":""main"",""x"":376,""y"":532,""grid_col"":4,""grid_row"":5},{""step"":189,""event"":""placement"",""image_index"":6,""image_name"":""horse_1.jpg"",""trial"":1,""block"":1,""phase"":""main"",""x"":373,""y"":535,""grid_col"":4,""grid_row"":5},{""step"":190,""event"":""placement"",""image_index"":6,""image_name"":""horse_1.jpg"",""trial"":1,""block"":1,""phase"":""main"",""x"":369,""y"":539,""grid_col"":3,""grid_row"":5},{""step"":191,""event"":""placement"",""image_index"":6,""image_name"":""horse_1.jpg"",""trial"":1,""block"":1,""phase"":""main"",""x"":365,""y"":543,""grid_col"":3,""grid_row"":5},{""step"":192,""event"":""placement"",""image_index"":6,""image_name"":""horse_1.jpg"",""trial"":1,""block"":1,""phase"":""main"",""x"":363,""y"":546,""grid_col"":3,""grid_row"":5},{""step"":193,""event"":""placement"",""image_index"":6,""image_name"":""horse_1.jpg"",""trial"":1,""block"":1,""phase"":""main"",""x"":361,""y"":547,""grid_col"":3,""grid_row"":5},{""step"":194,""event"":""placement"",""image_index"":6,""image_name"":""horse_1.jpg"",""trial"":1,""block"":1,""phase"":""main"",""x"":361,""y"":548,""grid_col"":3,""grid_row"":5},{""step"":195,""event"":""placement"",""image_index"":7,""image_name"":""fish_1.jpg"",""trial"":1,""block"":1,""phase"":""main"",""x"":580,""y"":364,""grid_col"":6,""grid_row"":3},{""step"":196,""event"":""placement"",""image_index"":7,""image_name"":""fish_1.jpg"",""trial"":1,""block"":1,""phase"":""main"",""x"":581,""y"":364,""grid_col"":6,""grid_row"":3},{""step"":197,""event"":""placement"",""image_index"":7,""image_name"":""fish_1.jpg"",""trial"":1,""block"":1,""phase"":""main"",""x"":581,""y"":368,""grid_col"":6,""grid_row"":4},{""step"":198,""event"":""placement"",""image_index"":7,""image_name"":""fish_1.jpg"",""trial"":1,""block"":1,""phase"":""main"",""x"":580,""y"":378,""grid_col"":5,""grid_row"":4},{""step"":199,""event"":""placement"",""image_index"":7,""image_name"":""fish_1.jpg"",""trial"":1,""block"":1,""phase"":""main"",""x"":576,""y"":391,""grid_col"":5,""grid_row"":4},{""step"":200,""event"":""placement"",""image_index"":7,""image_name"":""fish_1.jpg"",""trial"":1,""block"":1,""phase"":""main"",""x"":572,""y"":404,""grid_col"":5,""grid_row"":4},{""step"":201,""event"":""placement"",""image_index"":7,""image_name"":""fish_1.jpg"",""trial"":1,""block"":1,""phase"":""main"",""x"":565,""y"":422,""grid_col"":5,""grid_row"":4},{""step"":202,""event"":""placement"",""image_index"":7,""image_name"":""fish_1.jpg"",""trial"":1,""block"":1,""phase"":""main"",""x"":555,""y"":447,""grid_col"":5,""grid_row"":4},{""step"":203,""event"":""placement"",""image_index"":7,""image_name"":""fish_1.jpg"",""trial"":1,""block"":1,""phase"":""main"",""x"":542,""y"":475,""grid_col"":5,""grid_row"":5},{""step"":204,""event"":""placement"",""image_index"":7,""image_name"":""fish_1.jpg"",""trial"":1,""block"":1,""phase"":""main"",""x"":528,""y"":506,""grid_col"":5,""grid_row"":5},{""step"":205,""event"":""placement"",""image_index"":7,""image_name"":""fish_1.jpg"",""trial"":1,""block"":1,""phase"":""main"",""x"":514,""y"":535,""grid_col"":5,""grid_row"":5},{""step"":206,""event"":""placement"",""image_index"":7,""image_name"":""fish_1.jpg"",""trial"":1,""block"":1,""phase"":""main"",""x"":504,""y"":556,""grid_col"":5,""grid_row"":5},{""step"":207,""event"":""placement"",""image_index"":7,""image_name"":""fish_1.jpg"",""trial"":1,""block"":1,""phase"":""main"",""x"":495,""y"":574,""grid_col"":5,""grid_row"":6},{""step"":208,""event"":""placement"",""image_index"":7,""image_name"":""fish_1.jpg"",""trial"":1,""block"":1,""phase"":""main"",""x"":489,""y"":587,""grid_col"":5,""grid_row"":6},{""step"":209,""event"":""placement"",""image_index"":7,""image_name"":""fish_1.jpg"",""trial"":1,""block"":1,""phase"":""main"",""x"":485,""y"":597,""grid_col"":5,""grid_row"":6},{""step"":210,""event"":""placement"",""image_index"":7,""image_name"":""fish_1.jpg"",""trial"":1,""block"":1,""phase"":""main"",""x"":480,""y"":607,""grid_col"":5,""grid_row"":6},{""step"":211,""event"":""placement"",""image_index"":7,""image_name"":""fish_1.jpg"",""trial"":1,""block"":1,""phase"":""main"",""x"":476,""y"":615,""grid_col"":5,""grid_row"":6},{""step"":212,""event"":""placement"",""image_index"":7,""image_name"":""fish_1.jpg"",""trial"":1,""block"":1,""phase"":""main"",""x"":475,""y"":616,""grid_col"":4,""grid_row"":6},{""step"":213,""event"":""placement"",""image_index"":7,""image_name"":""fish_1.jpg"",""trial"":1,""block"":1,""phase"":""main"",""x"":474,""y"":616,""grid_col"":4,""grid_row"":6},{""step"":214,""event"":""placement"",""image_index"":7,""image_name"":""fish_1.jpg"",""trial"":1,""block"":1,""phase"":""main"",""x"":473,""y"":616,""grid_col"":4,""grid_row"":6},{""step"":215,""event"":""placement"",""image_index"":7,""image_name"":""fish_1.jpg"",""trial"":1,""block"":1,""phase"":""main"",""x"":472,""y"":616,""grid_col"":4,""grid_row"":6},{""step"":216,""event"":""placement"",""image_index"":8,""image_name"":""squirrel_1.jpg"",""trial"":1,""block"":1,""phase"":""main"",""x"":580,""y"":364,""grid_col"":6,""grid_row"":3},{""step"":217,""event"":""placement"",""image_index"":8,""image_name"":""squirrel_1.jpg"",""trial"":1,""block"":1,""phase"":""main"",""x"":580,""y"":363,""grid_col"":5,""grid_row"":3},{""step"":218,""event"":""placement"",""image_index"":8,""image_name"":""squirrel_1.jpg"",""trial"":1,""block"":1,""phase"":""main"",""x"":578,""y"":363,""grid_col"":5,""grid_row"":3},{""step"":219,""event"":""placement"",""image_index"":8,""image_name"":""squirrel_1.jpg"",""trial"":1,""block"":1,""phase"":""main"",""x"":574,""y"":363,""grid_col"":5,""grid_row"":3},{""step"":220,""event"":""placement"",""image_index"":8,""image_name"":""squirrel_1.jpg"",""trial"":1,""block"":1,""phase"":""main"",""x"":568,""y"":363,""grid_col"":5,""grid_row"":3},{""step"":221,""event"":""placement"",""image_index"":8,""image_name"":""squirrel_1.jpg"",""trial"":1,""block"":1,""phase"":""main"",""x"":560,""y"":363,""grid_col"":5,""grid_row"":3},{""step"":222,""event"":""placement"",""image_index"":8,""image_name"":""squirrel_1.jpg"",""trial"":1,""block"":1,""phase"":""main"",""x"":550,""y"":363,""grid_col"":5,""grid_row"":3},{""step"":223,""event"":""placement"",""image_index"":8,""image_name"":""squirrel_1.jpg"",""trial"":1,""block"":1,""phase"":""main"",""x"":533,""y"":363,""grid_col"":5,""grid_row"":3},{""step"":224,""event"":""placement"",""image_index"":8,""image_name"":""squirrel_1.jpg"",""trial"":1,""block"":1,""phase"":""main"",""x"":517,""y"":363,""grid_col"":5,""grid_row"":3},{""step"":225,""event"":""placement"",""image_index"":8,""image_name"":""squirrel_1.jpg"",""trial"":1,""block"":1,""phase"":""main"",""x"":506,""y"":363,""grid_col"":5,""grid_row"":3},{""step"":226,""event"":""placement"",""image_index"":8,""image_name"":""squirrel_1.jpg"",""trial"":1,""block"":1,""phase"":""main"",""x"":490,""y"":363,""grid_col"":5,""grid_row"":3},{""step"":227,""event"":""placement"",""image_index"":8,""image_name"":""squirrel_1.jpg"",""trial"":1,""block"":1,""phase"":""main"",""x"":477,""y"":362,""grid_col"":5,""grid_row"":3},{""step"":228,""event"":""placement"",""image_index"":8,""image_name"":""squirrel_1.jpg"",""trial"":1,""block"":1,""phase"":""main"",""x"":463,""y"":358,""grid_col"":4,""grid_row"":3},{""step"":229,""event"":""placement"",""image_index"":8,""image_name"":""squirrel_1.jpg"",""trial"":1,""block"":1,""phase"":""main"",""x"":450,""y"":352,""grid_col"":4,""grid_row"":3},{""step"":230,""event"":""placement"",""image_index"":8,""image_name"":""squirrel_1.jpg"",""trial"":1,""block"":1,""phase"":""main"",""x"":441,""y"":347,""grid_col"":4,""grid_row"":3},{""step"":231,""event"":""placement"",""image_index"":8,""image_name"":""squirrel_1.jpg"",""trial"":1,""block"":1,""phase"":""main"",""x"":434,""y"":342,""grid_col"":4,""grid_row"":3},{""step"":232,""event"":""placement"",""image_index"":8,""image_name"":""squirrel_1.jpg"",""trial"":1,""block"":1,""phase"":""main"",""x"":427,""y"":336,""grid_col"":4,""grid_row"":3},{""step"":233,""event"":""placement"",""image_index"":8,""image_name"":""squirrel_1.jpg"",""trial"":1,""block"":1,""phase"":""main"",""x"":421,""y"":330,""grid_col"":4,""grid_row"":3},{""step"":234,""event"":""placement"",""image_index"":8,""image_name"":""squirrel_1.jpg"",""trial"":1,""block"":1,""phase"":""main"",""x"":417,""y"":325,""grid_col"":4,""grid_row"":3},{""step"":235,""event"":""placement"",""image_index"":8,""image_name"":""squirrel_1.jpg"",""trial"":1,""block"":1,""phase"":""main"",""x"":416,""y"":322,""grid_col"":4,""grid_row"":3},{""step"":236,""event"":""placement"",""image_index"":8,""image_name"":""squirrel_1.jpg"",""trial"":1,""block"":1,""phase"":""main"",""x"":415,""y"":320,""grid_col"":4,""grid_row"":3},{""step"":237,""event"":""placement"",""image_index"":8,""image_name"":""squirrel_1.jpg"",""trial"":1,""block"":1,""phase"":""main"",""x"":414,""y"":317,""grid_col"":4,""grid_row"":3},{""step"":238,""event"":""placement"",""image_index"":8,""image_name"":""squirrel_1.jpg"",""trial"":1,""block"":1,""phase"":""main"",""x"":413,""y"":316,""grid_col"":4,""grid_row"":3},{""step"":239,""event"":""placement"",""image_index"":8,""image_name"":""squirrel_1.jpg"",""trial"":1,""block"":1,""phase"":""main"",""x"":413,""y"":315,""grid_col"":4,""grid_row"":3},{""step"":240,""event"":""placement"",""image_index"":8,""image_name"":""squirrel_1.jpg"",""trial"":1,""block"":1,""phase"":""main"",""x"":413,""y"":314,""grid_col"":4,""grid_row"":3},{""step"":241,""event"":""placement"",""image_index"":9,""image_name"":""butterfly_1.jpg"",""trial"":1,""block"":1,""phase"":""main"",""x"":581,""y"":364,""grid_col"":6,""grid_row"":4},{""step"":242,""event"":""placement"",""image_index"":9,""image_name"":""butterfly_1.jpg"",""trial"":1,""block"":1,""phase"":""main"",""x"":584,""y"":364,""grid_col"":6,""grid_row"":4},{""step"":243,""event"":""placement"",""image_index"":9,""image_name"":""butterfly_1.jpg"",""trial"":1,""block"":1,""phase"":""main"",""x"":593,""y"":363,""grid_col"":6,""grid_row"":3},{""step"":244,""event"":""placement"",""image_index"":9,""image_name"":""butterfly_1.jpg"",""trial"":1,""block"":1,""phase"":""main"",""x"":607,""y"":360,""grid_col"":6,""grid_row"":3},{""step"":245,""event"":""placement"",""image_index"":9,""image_name"":""butterfly_1.jpg"",""trial"":1,""block"":1,""phase"":""main"",""x"":623,""y"":356,""grid_col"":6,""grid_row"":3},{""step"":246,""event"":""placement"",""image_index"":9,""image_name"":""butterfly_1.jpg"",""trial"":1,""block"":1,""phase"":""main"",""x"":641,""y"":350,""grid_col"":6,""grid_row"":3},{""step"":247,""event"":""placement"",""image_index"":9,""image_name"":""butterfly_1.jpg"",""trial"":1,""block"":1,""phase"":""main"",""x"":657,""y"":345,""grid_col"":6,""grid_row"":3},{""step"":248,""event"":""placement"",""image_index"":9,""image_name"":""butterfly_1.jpg"",""trial"":1,""block"":1,""phase"":""main"",""x"":671,""y"":342,""grid_col"":6,""grid_row"":3},{""step"":249,""event"":""placement"",""image_index"":9,""image_name"":""butterfly_1.jpg"",""trial"":1,""block"":1,""phase"":""main"",""x"":688,""y"":339,""grid_col"":7,""grid_row"":3},{""step"":250,""event"":""placement"",""image_index"":9,""image_name"":""butterfly_1.jpg"",""trial"":1,""block"":1,""phase"":""main"",""x"":709,""y"":335,""grid_col"":7,""grid_row"":3},{""step"":251,""event"":""placement"",""image_index"":9,""image_name"":""butterfly_1.jpg"",""trial"":1,""block"":1,""phase"":""main"",""x"":730,""y"":332,""grid_col"":7,""grid_row"":3},{""step"":252,""event"":""placement"",""image_index"":9,""image_name"":""butterfly_1.jpg"",""trial"":1,""block"":1,""phase"":""main"",""x"":750,""y"":329,""grid_col"":7,""grid_row"":3},{""step"":253,""event"":""placement"",""image_index"":9,""image_name"":""butterfly_1.jpg"",""trial"":1,""block"":1,""phase"":""main"",""x"":763,""y"":328,""grid_col"":7,""grid_row"":3},{""step"":254,""event"":""placement"",""image_index"":9,""image_name"":""butterfly_1.jpg"",""trial"":1,""block"":1,""phase"":""main"",""x"":774,""y"":328,""grid_col"":7,""grid_row"":3},{""step"":255,""event"":""placement"",""image_index"":9,""image_name"":""butterfly_1.jpg"",""trial"":1,""block"":1,""phase"":""main"",""x"":786,""y"":327,""grid_col"":7,""grid_row"":3},{""step"":256,""event"":""placement"",""image_index"":9,""image_name"":""butterfly_1.jpg"",""trial"":1,""block"":1,""phase"":""main"",""x"":794,""y"":327,""grid_col"":8,""grid_row"":3},{""step"":257,""event"":""placement"",""image_index"":9,""image_name"":""butterfly_1.jpg"",""trial"":1,""block"":1,""phase"":""main"",""x"":799,""y"":327,""grid_col"":8,""grid_row"":3},{""step"":258,""event"":""placement"",""image_index"":9,""image_name"":""butterfly_1.jpg"",""trial"":1,""block"":1,""phase"":""main"",""x"":801,""y"":327,""grid_col"":8,""grid_row"":3},{""step"":259,""event"":""placement"",""image_index"":9,""image_name"":""butterfly_1.jpg"",""trial"":1,""block"":1,""phase"":""main"",""x"":804,""y"":327,""grid_col"":8,""grid_row"":3},{""step"":260,""event"":""placement"",""image_index"":9,""image_name"":""butterfly_1.jpg"",""trial"":1,""block"":1,""phase"":""main"",""x"":807,""y"":327,""grid_col"":8,""grid_row"":3},{""step"":261,""event"":""placement"",""image_index"":9,""image_name"":""butterfly_1.jpg"",""trial"":1,""block"":1,""phase"":""main"",""x"":809,""y"":327,""grid_col"":8,""grid_row"":3},{""step"":262,""event"":""placement"",""image_index"":9,""image_name"":""butterfly_1.jpg"",""trial"":1,""block"":1,""phase"":""main"",""x"":810,""y"":327,""grid_col"":8,""grid_row"":3},{""step"":263,""event"":""placement"",""image_index"":9,""image_name"":""butterfly_1.jpg"",""trial"":1,""block"":1,""phase"":""main"",""x"":811,""y"":327,""grid_col"":8,""grid_row"":3},{""step"":264,""event"":""placement"",""image_index"":9,""image_name"":""butterfly_1.jpg"",""trial"":1,""block"":1,""phase"":""main"",""x"":812,""y"":327,""grid_col"":8,""grid_row"":3},{""step"":265,""event"":""placement"",""image_index"":9,""image_name"":""butterfly_1.jpg"",""trial"":1,""block"":1,""phase"":""main"",""x"":813,""y"":326,""grid_col"":8,""grid_row"":3},{""step"":266,""event"":""placement"",""image_index"":9,""image_name"":""butterfly_1.jpg"",""trial"":1,""block"":1,""phase"":""main"",""x"":814,""y"":324,""grid_col"":8,""grid_row"":3},{""step"":267,""event"":""placement"",""image_index"":10,""image_name"":""ladybug_1.jpg"",""trial"":1,""block"":1,""phase"":""main"",""x"":580,""y"":364,""grid_col"":5,""grid_row"":4},{""step"":268,""event"":""placement"",""image_index"":10,""image_name"":""ladybug_1.jpg"",""trial"":1,""block"":1,""phase"":""main"",""x"":579,""y"":363,""grid_col"":5,""grid_row"":3},{""step"":269,""event"":""placement"",""image_index"":10,""image_name"":""ladybug_1.jpg"",""trial"":1,""block"":1,""phase"":""main"",""x"":579,""y"":361,""grid_col"":5,""grid_row"":3},{""step"":270,""event"":""placement"",""image_index"":10,""image_name"":""ladybug_1.jpg"",""trial"":1,""block"":1,""phase"":""main"",""x"":579,""y"":354,""grid_col"":5,""grid_row"":3},{""step"":271,""event"":""placement"",""image_index"":10,""image_name"":""ladybug_1.jpg"",""trial"":1,""block"":1,""phase"":""main"",""x"":581,""y"":342,""grid_col"":6,""grid_row"":3},{""step"":272,""event"":""placement"",""image_index"":10,""image_name"":""ladybug_1.jpg"",""trial"":1,""block"":1,""phase"":""main"",""x"":585,""y"":326,""grid_col"":6,""grid_row"":3},{""step"":273,""event"":""placement"",""image_index"":10,""image_name"":""ladybug_1.jpg"",""trial"":1,""block"":1,""phase"":""main"",""x"":591,""y"":306,""grid_col"":6,""grid_row"":3},{""step"":274,""event"":""placement"",""image_index"":10,""image_name"":""ladybug_1.jpg"",""trial"":1,""block"":1,""phase"":""main"",""x"":599,""y"":282,""grid_col"":6,""grid_row"":3},{""step"":275,""event"":""placement"",""image_index"":10,""image_name"":""ladybug_1.jpg"",""trial"":1,""block"":1,""phase"":""main"",""x"":608,""y"":257,""grid_col"":6,""grid_row"":2},{""step"":276,""event"":""placement"",""image_index"":10,""image_name"":""ladybug_1.jpg"",""trial"":1,""block"":1,""phase"":""main"",""x"":614,""y"":240,""grid_col"":6,""grid_row"":2},{""step"":277,""event"":""placement"",""image_index"":10,""image_name"":""ladybug_1.jpg"",""trial"":1,""block"":1,""phase"":""main"",""x"":621,""y"":223,""grid_col"":6,""grid_row"":2},{""step"":278,""event"":""placement"",""image_index"":10,""image_name"":""ladybug_1.jpg"",""trial"":1,""block"":1,""phase"":""main"",""x"":629,""y"":203,""grid_col"":6,""grid_row"":2},{""step"":279,""event"":""placement"",""image_index"":10,""image_name"":""ladybug_1.jpg"",""trial"":1,""block"":1,""phase"":""main"",""x"":636,""y"":185,""grid_col"":6,""grid_row"":2},{""step"":280,""event"":""placement"",""image_index"":10,""image_name"":""ladybug_1.jpg"",""trial"":1,""block"":1,""phase"":""main"",""x"":646,""y"":158,""grid_col"":6,""grid_row"":2},{""step"":281,""event"":""placement"",""image_index"":10,""image_name"":""ladybug_1.jpg"",""trial"":1,""block"":1,""phase"":""main"",""x"":658,""y"":128,""grid_col"":6,""grid_row"":1},{""step"":282,""event"":""placement"",""image_index"":10,""image_name"":""ladybug_1.jpg"",""trial"":1,""block"":1,""phase"":""main"",""x"":664,""y"":112,""grid_col"":6,""grid_row"":1},{""step"":283,""event"":""placement"",""image_index"":10,""image_name"":""ladybug_1.jpg"",""trial"":1,""block"":1,""phase"":""main"",""x"":668,""y"":112,""grid_col"":6,""grid_row"":1},{""step"":284,""event"":""placement"",""image_index"":10,""image_name"":""ladybug_1.jpg"",""trial"":1,""block"":1,""phase"":""main"",""x"":671,""y"":112,""grid_col"":6,""grid_row"":1},{""step"":285,""event"":""placement"",""image_index"":10,""image_name"":""ladybug_1.jpg"",""trial"":1,""block"":1,""phase"":""main"",""x"":673,""y"":112,""grid_col"":6,""grid_row"":1},{""step"":286,""event"":""placement"",""image_index"":10,""image_name"":""ladybug_1.jpg"",""trial"":1,""block"":1,""phase"":""main"",""x"":675,""y"":112,""grid_col"":6,""grid_row"":1},{""step"":287,""event"":""placement"",""image_index"":10,""image_name"":""ladybug_1.jpg"",""trial"":1,""block"":1,""phase"":""main"",""x"":677,""y"":112,""grid_col"":6,""grid_row"":1},{""step"":288,""event"":""placement"",""image_index"":10,""image_name"":""ladybug_1.jpg"",""trial"":1,""block"":1,""phase"":""main"",""x"":678,""y"":112,""grid_col"":6,""grid_row"":1},{""step"":289,""event"":""placement"",""image_index"":10,""image_name"":""ladybug_1.jpg"",""trial"":1,""block"":1,""phase"":""main"",""x"":679,""y"":112,""grid_col"":6,""grid_row"":1},{""step"":290,""event"":""placement"",""image_index"":10,""image_name"":""ladybug_1.jpg"",""trial"":1,""block"":1,""phase"":""main"",""x"":679,""y"":112,""grid_col"":6,""grid_row"":1},{""step"":291,""event"":""placement"",""image_index"":10,""image_name"":""ladybug_1.jpg"",""trial"":1,""block"":1,""phase"":""main"",""x"":679,""y"":112,""grid_col"":6,""grid_row"":1},{""step"":292,""event"":""placement"",""image_index"":10,""image_name"":""ladybug_1.jpg"",""trial"":1,""block"":1,""phase"":""main"",""x"":679,""y"":112,""grid_col"":6,""grid_row"":1},{""step"":293,""event"":""placement"",""image_index"":11,""image_name"":""wolf_1.jpg"",""trial"":1,""block"":1,""phase"":""main"",""x"":580,""y"":364,""grid_col"":6,""grid_row"":4},{""step"":294,""event"":""placement"",""image_index"":11,""image_name"":""wolf_1.jpg"",""trial"":1,""block"":1,""phase"":""main"",""x"":582,""y"":364,""grid_col"":6,""grid_row"":4},{""step"":295,""event"":""placement"",""image_index"":11,""image_name"":""wolf_1.jpg"",""trial"":1,""block"":1,""phase"":""main"",""x"":587,""y"":364,""grid_col"":6,""grid_row"":4},{""step"":296,""event"":""placement"",""image_index"":11,""image_name"":""wolf_1.jpg"",""trial"":1,""block"":1,""phase"":""main"",""x"":597,""y"":364,""grid_col"":6,""grid_row"":4},{""step"":297,""event"":""placement"",""image_index"":11,""image_name"":""wolf_1.jpg"",""trial"":1,""block"":1,""phase"":""main"",""x"":611,""y"":364,""grid_col"":6,""grid_row"":4},{""step"":298,""event"":""placement"",""image_index"":11,""image_name"":""wolf_1.jpg"",""trial"":1,""block"":1,""phase"":""main"",""x"":627,""y"":364,""grid_col"":6,""grid_row"":4},{""step"":299,""event"":""placement"",""image_index"":11,""image_name"":""wolf_1.jpg"",""trial"":1,""block"":1,""phase"":""main"",""x"":648,""y"":364,""grid_col"":6,""grid_row"":4},{""step"":300,""event"":""placement"",""image_index"":11,""image_name"":""wolf_1.jpg"",""trial"":1,""block"":1,""phase"":""main"",""x"":671,""y"":364,""grid_col"":6,""grid_row"":4},{""step"":301,""event"":""placement"",""image_index"":11,""image_name"":""wolf_1.jpg"",""trial"":1,""block"":1,""phase"":""main"",""x"":688,""y"":364,""grid_col"":7,""grid_row"":4},{""step"":302,""event"":""placement"",""image_index"":11,""image_name"":""wolf_1.jpg"",""trial"":1,""block"":1,""phase"":""main"",""x"":701,""y"":364,""grid_col"":7,""grid_row"":4},{""step"":303,""event"":""placement"",""image_index"":11,""image_name"":""wolf_1.jpg"",""trial"":1,""block"":1,""phase"":""main"",""x"":713,""y"":364,""grid_col"":7,""grid_row"":4},{""step"":304,""event"":""placement"",""image_index"":11,""image_name"":""wolf_1.jpg"",""trial"":1,""block"":1,""phase"":""main"",""x"":720,""y"":365,""grid_col"":7,""grid_row"":4},{""step"":305,""event"":""placement"",""image_index"":11,""image_name"":""wolf_1.jpg"",""trial"":1,""block"":1,""phase"":""main"",""x"":728,""y"":366,""grid_col"":7,""grid_row"":4},{""step"":306,""event"":""placement"",""image_index"":11,""image_name"":""wolf_1.jpg"",""trial"":1,""block"":1,""phase"":""main"",""x"":734,""y"":367,""grid_col"":7,""grid_row"":4},{""step"":307,""event"":""placement"",""image_index"":11,""image_name"":""wolf_1.jpg"",""trial"":1,""block"":1,""phase"":""main"",""x"":740,""y"":368,""grid_col"":7,""grid_row"":4},{""step"":308,""event"":""placement"",""image_index"":11,""image_name"":""wolf_1.jpg"",""trial"":1,""block"":1,""phase"":""main"",""x"":744,""y"":370,""grid_col"":7,""grid_row"":4},{""step"":309,""event"":""placement"",""image_index"":11,""image_name"":""wolf_1.jpg"",""trial"":1,""block"":1,""phase"":""main"",""x"":747,""y"":371,""grid_col"":7,""grid_row"":4},{""step"":310,""event"":""placement"",""image_index"":11,""image_name"":""wolf_1.jpg"",""trial"":1,""block"":1,""phase"":""main"",""x"":749,""y"":372,""grid_col"":7,""grid_row"":4},{""step"":311,""event"":""placement"",""image_index"":11,""image_name"":""wolf_1.jpg"",""trial"":1,""block"":1,""phase"":""main"",""x"":749,""y"":372,""grid_col"":7,""grid_row"":4},{""step"":312,""event"":""placement"",""image_index"":11,""image_name"":""wolf_1.jpg"",""trial"":1,""block"":1,""phase"":""main"",""x"":750,""y"":372,""grid_col"":7,""grid_row"":4},{""step"":313,""event"":""placement"",""image_index"":11,""image_name"":""wolf_1.jpg"",""trial"":1,""block"":1,""phase"":""main"",""x"":750,""y"":373,""grid_col"":7,""grid_row"":4},{""step"":314,""event"":""placement"",""image_index"":1,""image_name"":""dolphin_1.jpg"",""trial"":1,""block"":1,""phase"":""main"",""x"":320,""y"":416,""grid_col"":3,""grid_row"":4},{""step"":315,""event"":""placement"",""image_index"":1,""image_name"":""dolphin_1.jpg"",""trial"":1,""block"":1,""phase"":""main"",""x"":321,""y"":416,""grid_col"":3,""grid_row"":4},{""step"":316,""event"":""placement"",""image_index"":1,""image_name"":""dolphin_1.jpg"",""trial"":1,""block"":1,""phase"":""main"",""x"":322,""y"":416,""grid_col"":3,""grid_row"":4},{""step"":317,""event"":""placement"",""image_index"":1,""image_name"":""dolphin_1.jpg"",""trial"":1,""block"":1,""phase"":""main"",""x"":325,""y"":416,""grid_col"":3,""grid_row"":4},{""step"":318,""event"":""placement"",""image_index"":1,""image_name"":""dolphin_1.jpg"",""trial"":1,""block"":1,""phase"":""main"",""x"":331,""y"":416,""grid_col"":3,""grid_row"":4},{""step"":319,""event"":""placement"",""image_index"":1,""image_name"":""dolphin_1.jpg"",""trial"":1,""block"":1,""phase"":""main"",""x"":342,""y"":416,""grid_col"":3,""grid_row"":4},{""step"":320,""event"":""placement"",""image_index"":1,""image_name"":""dolphin_1.jpg"",""trial"":1,""block"":1,""phase"":""main"",""x"":357,""y"":416,""grid_col"":3,""grid_row"":4},{""step"":321,""event"":""placement"",""image_index"":1,""image_name"":""dolphin_1.jpg"",""trial"":1,""block"":1,""phase"":""main"",""x"":373,""y"":414,""grid_col"":4,""grid_row"":4},{""step"":322,""event"":""placement"",""image_index"":1,""image_name"":""dolphin_1.jpg"",""trial"":1,""block"":1,""phase"":""main"",""x"":392,""y"":413,""grid_col"":4,""grid_row"":4},{""step"":323,""event"":""placement"",""image_index"":1,""image_name"":""dolphin_1.jpg"",""trial"":1,""block"":1,""phase"":""main"",""x"":408,""y"":412,""grid_col"":4,""grid_row"":4},{""step"":324,""event"":""placement"",""image_index"":1,""image_name"":""dolphin_1.jpg"",""trial"":1,""block"":1,""phase"":""main"",""x"":429,""y"":410,""grid_col"":4,""grid_row"":4},{""step"":325,""event"":""placement"",""image_index"":1,""image_name"":""dolphin_1.jpg"",""trial"":1,""block"":1,""phase"":""main"",""x"":449,""y"":410,""grid_col"":4,""grid_row"":4},{""step"":326,""event"":""placement"",""image_index"":1,""image_name"":""dolphin_1.jpg"",""trial"":1,""block"":1,""phase"":""main"",""x"":469,""y"":408,""grid_col"":4,""grid_row"":4},{""step"":327,""event"":""placement"",""image_index"":1,""image_name"":""dolphin_1.jpg"",""trial"":1,""block"":1,""phase"":""main"",""x"":494,""y"":407,""grid_col"":5,""grid_row"":4},{""step"":328,""event"":""placement"",""image_index"":1,""image_name"":""dolphin_1.jpg"",""trial"":1,""block"":1,""phase"":""main"",""x"":512,""y"":406,""grid_col"":5,""grid_row"":4},{""step"":329,""event"":""placement"",""image_index"":1,""image_name"":""dolphin_1.jpg"",""trial"":1,""block"":1,""phase"":""main"",""x"":526,""y"":406,""grid_col"":5,""grid_row"":4},{""step"":330,""event"":""placement"",""image_index"":1,""image_name"":""dolphin_1.jpg"",""trial"":1,""block"":1,""phase"":""main"",""x"":541,""y"":406,""grid_col"":5,""grid_row"":4},{""step"":331,""event"":""placement"",""image_index"":1,""image_name"":""dolphin_1.jpg"",""trial"":1,""block"":1,""phase"":""main"",""x"":550,""y"":406,""grid_col"":5,""grid_row"":4},{""step"":332,""event"":""placement"",""image_index"":1,""image_name"":""dolphin_1.jpg"",""trial"":1,""block"":1,""phase"":""main"",""x"":555,""y"":406,""grid_col"":5,""grid_row"":4},{""step"":333,""event"":""placement"",""image_index"":1,""image_name"":""dolphin_1.jpg"",""trial"":1,""block"":1,""phase"":""main"",""x"":561,""y"":406,""grid_col"":5,""grid_row"":4},{""step"":334,""event"":""placement"",""image_index"":1,""image_name"":""dolphin_1.jpg"",""trial"":1,""block"":1,""phase"":""main"",""x"":564,""y"":406,""grid_col"":5,""grid_row"":4},{""step"":335,""event"":""placement"",""image_index"":1,""image_name"":""dolphin_1.jpg"",""trial"":1,""block"":1,""phase"":""main"",""x"":566,""y"":406,""grid_col"":5,""grid_row"":4},{""step"":336,""event"":""placement"",""image_index"":1,""image_name"":""dolphin_1.jpg"",""trial"":1,""block"":1,""phase"":""main"",""x"":567,""y"":406,""grid_col"":5,""grid_row"":4},{""step"":337,""event"":""placement"",""image_index"":1,""image_name"":""dolphin_1.jpg"",""trial"":1,""block"":1,""phase"":""main"",""x"":568,""y"":406,""grid_col"":5,""grid_row"":4},{""step"":338,""event"":""placement"",""image_index"":1,""image_name"":""dolphin_1.jpg"",""trial"":1,""block"":1,""phase"":""main"",""x"":569,""y"":406,""grid_col"":5,""grid_row"":4},{""step"":339,""event"":""placement"",""image_index"":6,""image_name"":""horse_1.jpg"",""trial"":1,""block"":1,""phase"":""main"",""x"":320,""y"":520,""grid_col"":3,""grid_row"":5},{""step"":340,""event"":""placement"",""image_index"":6,""image_name"":""horse_1.jpg"",""trial"":1,""block"":1,""phase"":""main"",""x"":320,""y"":518,""grid_col"":3,""grid_row"":5},{""step"":341,""event"":""placement"",""image_index"":6,""image_name"":""horse_1.jpg"",""trial"":1,""block"":1,""phase"":""main"",""x"":320,""y"":514,""grid_col"":3,""grid_row"":5},{""step"":342,""event"":""placement"",""image_index"":6,""image_name"":""horse_1.jpg"",""trial"":1,""block"":1,""phase"":""main"",""x"":320,""y"":505,""grid_col"":3,""grid_row"":5},{""step"":343,""event"":""placement"",""image_index"":6,""image_name"":""horse_1.jpg"",""trial"":1,""block"":1,""phase"":""main"",""x"":320,""y"":491,""grid_col"":3,""grid_row"":5},{""step"":344,""event"":""placement"",""image_index"":6,""image_name"":""horse_1.jpg"",""trial"":1,""block"":1,""phase"":""main"",""x"":319,""y"":474,""grid_col"":3,""grid_row"":5},{""step"":345,""event"":""placement"",""image_index"":6,""image_name"":""horse_1.jpg"",""trial"":1,""block"":1,""phase"":""main"",""x"":318,""y"":454,""grid_col"":3,""grid_row"":4},{""step"":346,""event"":""placement"",""image_index"":6,""image_name"":""horse_1.jpg"",""trial"":1,""block"":1,""phase"":""main"",""x"":318,""y"":438,""grid_col"":3,""grid_row"":4},{""step"":347,""event"":""placement"",""image_index"":6,""image_name"":""horse_1.jpg"",""trial"":1,""block"":1,""phase"":""main"",""x"":318,""y"":422,""grid_col"":3,""grid_row"":4},{""step"":348,""event"":""placement"",""image_index"":6,""image_name"":""horse_1.jpg"",""trial"":1,""block"":1,""phase"":""main"",""x"":318,""y"":402,""grid_col"":3,""grid_row"":4},{""step"":349,""event"":""placement"",""image_index"":6,""image_name"":""horse_1.jpg"",""trial"":1,""block"":1,""phase"":""main"",""x"":317,""y"":383,""grid_col"":3,""grid_row"":4},{""step"":350,""event"":""placement"",""image_index"":6,""image_name"":""horse_1.jpg"",""trial"":1,""block"":1,""phase"":""main"",""x"":316,""y"":366,""grid_col"":3,""grid_row"":4},{""step"":351,""event"":""placement"",""image_index"":6,""image_name"":""horse_1.jpg"",""trial"":1,""block"":1,""phase"":""main"",""x"":316,""y"":357,""grid_col"":3,""grid_row"":3},{""step"":352,""event"":""placement"",""image_index"":6,""image_name"":""horse_1.jpg"",""trial"":1,""block"":1,""phase"":""main"",""x"":316,""y"":350,""grid_col"":3,""grid_row"":3},{""step"":353,""event"":""placement"",""image_index"":6,""image_name"":""horse_1.jpg"",""trial"":1,""block"":1,""phase"":""main"",""x"":316,""y"":341,""grid_col"":3,""grid_row"":3},{""step"":354,""event"":""placement"",""image_index"":6,""image_name"":""horse_1.jpg"",""trial"":1,""block"":1,""phase"":""main"",""x"":316,""y"":332,""grid_col"":3,""grid_row"":3},{""step"":355,""event"":""placement"",""image_index"":6,""image_name"":""horse_1.jpg"",""trial"":1,""block"":1,""phase"":""main"",""x"":316,""y"":326,""grid_col"":3,""grid_row"":3},{""step"":356,""event"":""placement"",""image_index"":6,""image_name"":""horse_1.jpg"",""trial"":1,""block"":1,""phase"":""main"",""x"":316,""y"":322,""grid_col"":3,""grid_row"":3},{""step"":357,""event"":""placement"",""image_index"":6,""image_name"":""horse_1.jpg"",""trial"":1,""block"":1,""phase"":""main"",""x"":316,""y"":317,""grid_col"":3,""grid_row"":3},{""step"":358,""event"":""placement"",""image_index"":6,""image_name"":""horse_1.jpg"",""trial"":1,""block"":1,""phase"":""main"",""x"":316,""y"":314,""grid_col"":3,""grid_row"":3},{""step"":359,""event"":""placement"",""image_index"":6,""image_name"":""horse_1.jpg"",""trial"":1,""block"":1,""phase"":""main"",""x"":316,""y"":311,""grid_col"":3,""grid_row"":3},{""step"":360,""event"":""placement"",""image_index"":6,""image_name"":""horse_1.jpg"",""trial"":1,""block"":1,""phase"":""main"",""x"":316,""y"":309,""grid_col"":3,""grid_row"":3},{""step"":361,""event"":""placement"",""image_index"":6,""image_name"":""horse_1.jpg"",""trial"":1,""block"":1,""phase"":""main"",""x"":316,""y"":307,""grid_col"":3,""grid_row"":3},{""step"":362,""event"":""placement"",""image_index"":6,""image_name"":""horse_1.jpg"",""trial"":1,""block"":1,""phase"":""main"",""x"":316,""y"":305,""grid_col"":3,""grid_row"":3},{""step"":363,""event"":""placement"",""image_index"":6,""image_name"":""horse_1.jpg"",""trial"":1,""block"":1,""phase"":""main"",""x"":316,""y"":304,""grid_col"":3,""grid_row"":3},{""step"":364,""event"":""placement"",""image_index"":6,""image_name"":""horse_1.jpg"",""trial"":1,""block"":1,""phase"":""main"",""x"":316,""y"":304,""grid_col"":3,""grid_row"":3},{""step"":365,""event"":""placement"",""image_index"":6,""image_name"":""horse_1.jpg"",""trial"":1,""block"":1,""phase"":""main"",""x"":316,""y"":303,""grid_col"":3,""grid_row"":3},{""step"":366,""event"":""placement"",""image_index"":6,""image_name"":""horse_1.jpg"",""trial"":1,""block"":1,""phase"":""main"",""x"":316,""y"":303,""grid_col"":3,""grid_row"":3},{""step"":367,""event"":""placement"",""image_index"":6,""image_name"":""horse_1.jpg"",""trial"":1,""block"":1,""phase"":""main"",""x"":316,""y"":302,""grid_col"":3,""grid_row"":3}]"
