"success","timeout","failed_images","failed_audio","failed_video","trial_type","trial_index","time_elapsed","internal_node_id","rt","stimulus","response","participant","phase","block","trial","trial_in_block","placements","move_log"
"true","false","[]","[]","[]","preload","0","45","0.0-0.0","","","","","","","","","",""
"","","","","","html-button-response","1","831","0.0-1.0","785","
    <div style=""font-size:22px; line-height:1.5; max-width:850px; margin:auto; padding:20px;"">
      <p><b>This task works best in landscape orientation.</b></p>
      <p>If you are using an iPad, please rotate it horizontally before continuing.</p>
    </div>
  ","0","","","","","","",""
"","","","","","html-button-response","2","1801","0.0-2.0","970","
    <div style=""font-size:22px; line-height:1.5; max-width:850px; margin:auto; padding:20px;"">
      <p>You will first complete <b>1 practice trial</b>.</p>
      <p>After that, you will complete <b>2 blocks</b> of trials, with <b>3 trials per block</b>.</p>
    </div>
  ","0","","","","","","",""
"","","","","","html-button-response","3","2594","0.0-3.0","792","
    <div style=""font-size:22px; line-height:1.5; max-width:850px; margin:auto; padding:20px;"">
      <p>One picture will appear at a time.</p>
      <p>Place the current picture into the grid based on how it belongs with the pictures already shown.</p>
      <p>You can still move the earlier pictures if you want to adjust your arrangement.</p>
      <p>As soon as you place the current picture into the grid, the next picture will appear automatically until all pictures have appeared.</p>
      <p>After the last picture appears, you can keep adjusting all pictures and tap Continue when you are done.</p>
    </div>
  ","0","","","","","","",""
"","","","","","html-button-response","4","3352","0.0-4.0","758","<div style=""font-size:24px; padding:20px;"">Practice Trial</div>","0","","","","","","",""
"","","","","","emotion-grid","5","10177","0.0-5.0","","","","demo","practice","null","0","0","[{""participant"":""demo"",""phase"":""practice"",""block"":null,""trial"":0,""trial_in_block"":0,""image"":""rice.jpg"",""final_img_pos"":""(632, 312)"",""posX"":632,""posY"":312,""grid_col"":6,""grid_row"":3,""introduction_order"":1},{""participant"":""demo"",""phase"":""practice"",""block"":null,""trial"":0,""trial_in_block"":0,""image"":""pizza.jpg"",""final_img_pos"":""(528, 416)"",""posX"":528,""posY"":416,""grid_col"":5,""grid_row"":4,""introduction_order"":2},{""participant"":""demo"",""phase"":""practice"",""block"":null,""trial"":0,""trial_in_block"":0,""image"":""ice_cream.jpg"",""final_img_pos"":""(632, 520)"",""posX"":632,""posY"":520,""grid_col"":6,""grid_row"":5,""introduction_order"":3},{""participant"":""demo"",""phase"":""practice"",""block"":null,""trial"":0,""trial_in_block"":0,""image"":""chocolate.jpg"",""final_img_pos"":""(424, 520)"",""posX"":424,""posY"":520,""grid_col"":4,""grid_row"":5,""introduction_order"":4},{""participant"":""demo"",""phase"":""practice"",""block"":null,""trial"":0,""trial_in_block"":0,""image"":""ham.jpg"",""final_img_pos"":""(320, 312)"",""posX"":320,""posY"":312,""grid_col"":3,""grid_row"":3,""introduction_order"":5},{""participant"":""demo"",""phase"":""practice"",""block"":null,""trial"":0,""trial_in_block"":0,""image"":""salad.jpg"",""final_img_pos"":""(528, 208)"",""posX"":528,""posY"":208,""grid_col"":5,""grid_row"":2,""introduction_order"":6}]","[{""step"":0,""t_ms"":3738,""event"":""introduce_first_image"",""image"":""rice.jpg"",""image_index"":0,""focal_index"":0,""all_images_shown"":false,""x"":580,""y"":364,""grid_col"":6,""grid_row"":4},{""step"":1,""t_ms"":4477,""event"":""pointerdown"",""image"":""rice.jpg"",""image_index"":0,""focal_index"":0,""all_images_shown"":false,""x"":580,""y"":364,""grid_col"":6,""grid_row"":4},{""step"":2,""t_ms"":4618,""event"":""pointermove"",""image"":""rice.jpg"",""image_index"":0,""focal_index"":0,""all_images_shown"":false,""x"":580,""y"":364,""grid_col"":6,""grid_row"":3},{""step"":3,""t_ms"":4643,""event"":""pointermove"",""image"":""rice.jpg"",""image_index"":0,""focal_index"":0,""all_images_shown"":false,""x"":589,""y"":356,""grid_col"":6,""grid_row"":3},{""step"":4,""t_ms"":4651,""event"":""pointermove"",""image"":""rice.jpg"",""image_index"":0,""focal_index"":0,""all_images_shown"":false,""x"":593,""y"":353,""grid_col"":6,""grid_row"":3},{""step"":5,""t_ms"":4661,""event"":""pointermove"",""image"":""rice.jpg"",""image_index"":0,""focal_index"":0,""all_images_shown"":false,""x"":599,""y"":348,""grid_col"":6,""grid_row"":3},{""step"":6,""t_ms"":4668,""event"":""pointermove"",""image"":""rice.jpg"",""image_index"":0,""focal_index"":0,""all_images_shown"":false,""x"":604,""y"":342,""grid_col"":6,""grid_row"":3},{""step"":7,""t_ms"":4676,""event"":""pointermove"",""image"":""rice.jpg"",""image_index"":0,""focal_index"":0,""all_images_shown"":false,""x"":610,""y"":336,""grid_col"":6,""grid_row"":3},{""step"":8,""t_ms"":4684,""event"":""pointermove"",""image"":""rice.jpg"",""image_index"":0,""focal_index"":0,""all_images_shown"":false,""x"":615,""y"":331,""grid_col"":6,""grid_row"":3},{""step"":9,""t_ms"":4701,""event"":""pointermove"",""image"":""rice.jpg"",""image_index"":0,""focal_index"":0,""all_images_shown"":false,""x"":623,""y"":322,""grid_col"":6,""grid_row"":3},{""step"":10,""t_ms"":4726,""event"":""pointermove"",""image"":""rice.jpg"",""image_index"":0,""focal_index"":0,""all_images_shown"":false,""x"":628,""y"":316,""grid_col"":6,""grid_row"":3},{""step"":11,""t_ms"":4884,""event"":""pointerup"",""image"":""rice.jpg"",""image_index"":0,""focal_index"":0,""all_images_shown"":false,""x"":632,""y"":312,""grid_col"":6,""grid_row"":3,""placed"":true},{""step"":12,""t_ms"":4884,""event"":""introduce_next_image"",""image"":""pizza.jpg"",""image_index"":1,""focal_index"":1,""all_images_shown"":false,""x"":580,""y"":364,""grid_col"":6,""grid_row"":4},{""step"":13,""t_ms"":5373,""event"":""pointerdown"",""image"":""pizza.jpg"",""image_index"":1,""focal_index"":1,""all_images_shown"":false,""x"":580,""y"":364,""grid_col"":6,""grid_row"":4},{""step"":14,""t_ms"":5480,""event"":""pointermove"",""image"":""pizza.jpg"",""image_index"":1,""focal_index"":1,""all_images_shown"":false,""x"":580,""y"":364,""grid_col"":6,""grid_row"":4},{""step"":15,""t_ms"":5488,""event"":""pointermove"",""image"":""pizza.jpg"",""image_index"":1,""focal_index"":1,""all_images_shown"":false,""x"":580,""y"":365,""grid_col"":5,""grid_row"":4},{""step"":16,""t_ms"":5511,""event"":""pointermove"",""image"":""pizza.jpg"",""image_index"":1,""focal_index"":1,""all_images_shown"":false,""x"":573,""y"":377,""grid_col"":5,""grid_row"":4},{""step"":17,""t_ms"":5519,""event"":""pointermove"",""image"":""pizza.jpg"",""image_index"":1,""focal_index"":1,""all_images_shown"":false,""x"":568,""y"":385,""grid_col"":5,""grid_row"":4},{""step"":18,""t_ms"":5528,""event"":""pointermove"",""image"":""pizza.jpg"",""image_index"":1,""focal_index"":1,""all_images_shown"":false,""x"":561,""y"":393,""grid_col"":5,""grid_row"":4},{""step"":19,""t_ms"":5536,""event"":""pointermove"",""image"":""pizza.jpg"",""image_index"":1,""focal_index"":1,""all_images_shown"":false,""x"":553,""y"":402,""grid_col"":5,""grid_row"":4},{""step"":20,""t_ms"":5543,""event"":""pointermove"",""image"":""pizza.jpg"",""image_index"":1,""focal_index"":1,""all_images_shown"":false,""x"":547,""y"":408,""grid_col"":5,""grid_row"":4},{""step"":21,""t_ms"":5551,""event"":""pointermove"",""image"":""pizza.jpg"",""image_index"":1,""focal_index"":1,""all_images_shown"":false,""x"":541,""y"":414,""grid_col"":5,""grid_row"":4},{""step"":22,""t_ms"":5559,""event"":""pointermove"",""image"":""pizza.jpg"",""image_index"":1,""focal_index"":1,""all_images_shown"":false,""x"":535,""y"":421,""grid_col"":5,""grid_row"":4},{""step"":23,""t_ms"":5568,""event"":""pointermove"",""image"":""pizza.jpg"",""image_index"":1,""focal_index"":1,""all_images_shown"":false,""x"":531,""y"":424,""grid_col"":5,""grid_row"":4},{""step"":24,""t_ms"":5584,""event"":""pointermove"",""image"":""pizza.jpg"",""image_index"":1,""focal_index"":1,""all_images_shown"":false,""x"":526,""y"":428,""grid_col"":5,""grid_row"":4},{""step"":25,""t_ms"":5593,""event"":""pointermove"",""image"":""pizza.jpg"",""image_index"":1,""focal_index"":1,""all_images_shown"":false,""x"":524,""y"":429,""grid_col"":5,""grid_row"":4},{""step"":26,""t_ms"":5650,""event"":""pointerup"",""image"":""pizza.jpg"",""image_index"":1,""focal_index"":1,""all_images_shown"":false,""x"":528,""y"":416,""grid_col"":5,""grid_row"":4,""placed"":true},{""step"":27,""t_ms"":5650,""event"":""introduce_next_image"",""image"":""ice_cream.jpg"",""image_index"":2,""focal_index"":2,""all_images_shown"":false,""x"":580,""y"":364,""grid_col"":6,""grid_row"":4},{""step"":28,""t_ms"":6071,""event"":""pointerdown"",""image"":""ice_cream.jpg"",""image_index"":2,""focal_index"":2,""all_images_shown"":false,""x"":580,""y"":364,""grid_col"":6,""grid_row"":4},{""step"":29,""t_ms"":6159,""event"":""pointermove"",""image"":""ice_cream.jpg"",""image_index"":2,""focal_index"":2,""all_images_shown"":false,""x"":580,""y"":365,""grid_col"":6,""grid_row"":4},{""step"":30,""t_ms"":6179,""event"":""pointermove"",""image"":""ice_cream.jpg"",""image_index"":2,""focal_index"":2,""all_images_shown"":false,""x"":580,""y"":376,""grid_col"":6,""grid_row"":4},{""step"":31,""t_ms"":6187,""event"":""pointermove"",""image"":""ice_cream.jpg"",""image_index"":2,""focal_index"":2,""all_images_shown"":false,""x"":580,""y"":383,""grid_col"":6,""grid_row"":4},{""step"":32,""t_ms"":6195,""event"":""pointermove"",""image"":""ice_cream.jpg"",""image_index"":2,""focal_index"":2,""all_images_shown"":false,""x"":581,""y"":391,""grid_col"":6,""grid_row"":4},{""step"":33,""t_ms"":6204,""event"":""pointermove"",""image"":""ice_cream.jpg"",""image_index"":2,""focal_index"":2,""all_images_shown"":false,""x"":582,""y"":401,""grid_col"":6,""grid_row"":4},{""step"":34,""t_ms"":6212,""event"":""pointermove"",""image"":""ice_cream.jpg"",""image_index"":2,""focal_index"":2,""all_images_shown"":false,""x"":585,""y"":410,""grid_col"":6,""grid_row"":4},{""step"":35,""t_ms"":6220,""event"":""pointermove"",""image"":""ice_cream.jpg"",""image_index"":2,""focal_index"":2,""all_images_shown"":false,""x"":591,""y"":425,""grid_col"":6,""grid_row"":4},{""step"":36,""t_ms"":6228,""event"":""pointermove"",""image"":""ice_cream.jpg"",""image_index"":2,""focal_index"":2,""all_images_shown"":false,""x"":596,""y"":438,""grid_col"":6,""grid_row"":4},{""step"":37,""t_ms"":6237,""event"":""pointermove"",""image"":""ice_cream.jpg"",""image_index"":2,""focal_index"":2,""all_images_shown"":false,""x"":601,""y"":448,""grid_col"":6,""grid_row"":4},{""step"":38,""t_ms"":6245,""event"":""pointermove"",""image"":""ice_cream.jpg"",""image_index"":2,""focal_index"":2,""all_images_shown"":false,""x"":607,""y"":460,""grid_col"":6,""grid_row"":4},{""step"":39,""t_ms"":6253,""event"":""pointermove"",""image"":""ice_cream.jpg"",""image_index"":2,""focal_index"":2,""all_images_shown"":false,""x"":613,""y"":470,""grid_col"":6,""grid_row"":5},{""step"":40,""t_ms"":6260,""event"":""pointermove"",""image"":""ice_cream.jpg"",""image_index"":2,""focal_index"":2,""all_images_shown"":false,""x"":617,""y"":477,""grid_col"":6,""grid_row"":5},{""step"":41,""t_ms"":6276,""event"":""pointermove"",""image"":""ice_cream.jpg"",""image_index"":2,""focal_index"":2,""all_images_shown"":false,""x"":623,""y"":485,""grid_col"":6,""grid_row"":5},{""step"":42,""t_ms"":6293,""event"":""pointermove"",""image"":""ice_cream.jpg"",""image_index"":2,""focal_index"":2,""all_images_shown"":false,""x"":628,""y"":491,""grid_col"":6,""grid_row"":5},{""step"":43,""t_ms"":6301,""event"":""pointermove"",""image"":""ice_cream.jpg"",""image_index"":2,""focal_index"":2,""all_images_shown"":false,""x"":630,""y"":493,""grid_col"":6,""grid_row"":5},{""step"":44,""t_ms"":6358,""event"":""pointerup"",""image"":""ice_cream.jpg"",""image_index"":2,""focal_index"":2,""all_images_shown"":false,""x"":632,""y"":520,""grid_col"":6,""grid_row"":5,""placed"":true},{""step"":45,""t_ms"":6358,""event"":""introduce_next_image"",""image"":""chocolate.jpg"",""image_index"":3,""focal_index"":3,""all_images_shown"":false,""x"":580,""y"":364,""grid_col"":6,""grid_row"":4},{""step"":46,""t_ms"":6925,""event"":""pointerdown"",""image"":""chocolate.jpg"",""image_index"":3,""focal_index"":3,""all_images_shown"":false,""x"":580,""y"":364,""grid_col"":6,""grid_row"":4},{""step"":47,""t_ms"":6928,""event"":""pointermove"",""image"":""chocolate.jpg"",""image_index"":3,""focal_index"":3,""all_images_shown"":false,""x"":580,""y"":364,""grid_col"":5,""grid_row"":3},{""step"":48,""t_ms"":7012,""event"":""pointermove"",""image"":""chocolate.jpg"",""image_index"":3,""focal_index"":3,""all_images_shown"":false,""x"":573,""y"":364,""grid_col"":5,""grid_row"":4},{""step"":49,""t_ms"":7018,""event"":""pointermove"",""image"":""chocolate.jpg"",""image_index"":3,""focal_index"":3,""all_images_shown"":false,""x"":566,""y"":367,""grid_col"":5,""grid_row"":4},{""step"":50,""t_ms"":7027,""event"":""pointermove"",""image"":""chocolate.jpg"",""image_index"":3,""focal_index"":3,""all_images_shown"":false,""x"":556,""y"":371,""grid_col"":5,""grid_row"":4},{""step"":51,""t_ms"":7034,""event"":""pointermove"",""image"":""chocolate.jpg"",""image_index"":3,""focal_index"":3,""all_images_shown"":false,""x"":544,""y"":377,""grid_col"":5,""grid_row"":4},{""step"":52,""t_ms"":7043,""event"":""pointermove"",""image"":""chocolate.jpg"",""image_index"":3,""focal_index"":3,""all_images_shown"":false,""x"":528,""y"":384,""grid_col"":5,""grid_row"":4},{""step"":53,""t_ms"":7051,""event"":""pointermove"",""image"":""chocolate.jpg"",""image_index"":3,""focal_index"":3,""all_images_shown"":false,""x"":508,""y"":394,""grid_col"":5,""grid_row"":4},{""step"":54,""t_ms"":7059,""event"":""pointermove"",""image"":""chocolate.jpg"",""image_index"":3,""focal_index"":3,""all_images_shown"":false,""x"":488,""y"":405,""grid_col"":5,""grid_row"":4},{""step"":55,""t_ms"":7068,""event"":""pointermove"",""image"":""chocolate.jpg"",""image_index"":3,""focal_index"":3,""all_images_shown"":false,""x"":466,""y"":418,""grid_col"":4,""grid_row"":4},{""step"":56,""t_ms"":7076,""event"":""pointermove"",""image"":""chocolate.jpg"",""image_index"":3,""focal_index"":3,""all_images_shown"":false,""x"":445,""y"":431,""grid_col"":4,""grid_row"":4},{""step"":57,""t_ms"":7084,""event"":""pointermove"",""image"":""chocolate.jpg"",""image_index"":3,""focal_index"":3,""all_images_shown"":false,""x"":432,""y"":440,""grid_col"":4,""grid_row"":4},{""step"":58,""t_ms"":7093,""event"":""pointermove"",""image"":""chocolate.jpg"",""image_index"":3,""focal_index"":3,""all_images_shown"":false,""x"":420,""y"":447,""grid_col"":4,""grid_row"":4},{""step"":59,""t_ms"":7101,""event"":""pointermove"",""image"":""chocolate.jpg"",""image_index"":3,""focal_index"":3,""all_images_shown"":false,""x"":410,""y"":454,""grid_col"":4,""grid_row"":4},{""step"":60,""t_ms"":7109,""event"":""pointermove"",""image"":""chocolate.jpg"",""image_index"":3,""focal_index"":3,""all_images_shown"":false,""x"":403,""y"":459,""grid_col"":4,""grid_row"":4},{""step"":61,""t_ms"":7118,""event"":""pointermove"",""image"":""chocolate.jpg"",""image_index"":3,""focal_index"":3,""all_images_shown"":false,""x"":396,""y"":464,""grid_col"":4,""grid_row"":4},{""step"":62,""t_ms"":7143,""event"":""pointermove"",""image"":""chocolate.jpg"",""image_index"":3,""focal_index"":3,""all_images_shown"":false,""x"":386,""y"":470,""grid_col"":4,""grid_row"":5},{""step"":63,""t_ms"":7176,""event"":""pointermove"",""image"":""chocolate.jpg"",""image_index"":3,""focal_index"":3,""all_images_shown"":false,""x"":380,""y"":473,""grid_col"":4,""grid_row"":5},{""step"":64,""t_ms"":7262,""event"":""pointerup"",""image"":""chocolate.jpg"",""image_index"":3,""focal_index"":3,""all_images_shown"":false,""x"":424,""y"":520,""grid_col"":4,""grid_row"":5,""placed"":true},{""step"":65,""t_ms"":7262,""event"":""introduce_next_image"",""image"":""ham.jpg"",""image_index"":4,""focal_index"":4,""all_images_shown"":false,""x"":580,""y"":364,""grid_col"":6,""grid_row"":4},{""step"":66,""t_ms"":7779,""event"":""pointerdown"",""image"":""ham.jpg"",""image_index"":4,""focal_index"":4,""all_images_shown"":false,""x"":580,""y"":364,""grid_col"":6,""grid_row"":4},{""step"":67,""t_ms"":7784,""event"":""pointermove"",""image"":""ham.jpg"",""image_index"":4,""focal_index"":4,""all_images_shown"":false,""x"":580,""y"":364,""grid_col"":6,""grid_row"":4},{""step"":68,""t_ms"":7843,""event"":""pointermove"",""image"":""ham.jpg"",""image_index"":4,""focal_index"":4,""all_images_shown"":false,""x"":572,""y"":364,""grid_col"":5,""grid_row"":4},{""step"":69,""t_ms"":7851,""event"":""pointermove"",""image"":""ham.jpg"",""image_index"":4,""focal_index"":4,""all_images_shown"":false,""x"":560,""y"":364,""grid_col"":5,""grid_row"":4},{""step"":70,""t_ms"":7859,""event"":""pointermove"",""image"":""ham.jpg"",""image_index"":4,""focal_index"":4,""all_images_shown"":false,""x"":547,""y"":364,""grid_col"":5,""grid_row"":4},{""step"":71,""t_ms"":7866,""event"":""pointermove"",""image"":""ham.jpg"",""image_index"":4,""focal_index"":4,""all_images_shown"":false,""x"":532,""y"":364,""grid_col"":5,""grid_row"":4},{""step"":72,""t_ms"":7874,""event"":""pointermove"",""image"":""ham.jpg"",""image_index"":4,""focal_index"":4,""all_images_shown"":false,""x"":513,""y"":364,""grid_col"":5,""grid_row"":4},{""step"":73,""t_ms"":7879,""event"":""pointermove"",""image"":""ham.jpg"",""image_index"":4,""focal_index"":4,""all_images_shown"":false,""x"":489,""y"":362,""grid_col"":5,""grid_row"":3},{""step"":74,""t_ms"":7887,""event"":""pointermove"",""image"":""ham.jpg"",""image_index"":4,""focal_index"":4,""all_images_shown"":false,""x"":461,""y"":356,""grid_col"":4,""grid_row"":3},{""step"":75,""t_ms"":7896,""event"":""pointermove"",""image"":""ham.jpg"",""image_index"":4,""focal_index"":4,""all_images_shown"":false,""x"":438,""y"":349,""grid_col"":4,""grid_row"":3},{""step"":76,""t_ms"":7903,""event"":""pointermove"",""image"":""ham.jpg"",""image_index"":4,""focal_index"":4,""all_images_shown"":false,""x"":415,""y"":339,""grid_col"":4,""grid_row"":3},{""step"":77,""t_ms"":7913,""event"":""pointermove"",""image"":""ham.jpg"",""image_index"":4,""focal_index"":4,""all_images_shown"":false,""x"":389,""y"":324,""grid_col"":4,""grid_row"":3},{""step"":78,""t_ms"":7921,""event"":""pointermove"",""image"":""ham.jpg"",""image_index"":4,""focal_index"":4,""all_images_shown"":false,""x"":365,""y"":309,""grid_col"":3,""grid_row"":3},{""step"":79,""t_ms"":7929,""event"":""pointermove"",""image"":""ham.jpg"",""image_index"":4,""focal_index"":4,""all_images_shown"":false,""x"":349,""y"":298,""grid_col"":3,""grid_row"":3},{""step"":80,""t_ms"":7937,""event"":""pointermove"",""image"":""ham.jpg"",""image_index"":4,""focal_index"":4,""all_images_shown"":false,""x"":338,""y"":289,""grid_col"":3,""grid_row"":3},{""step"":81,""t_ms"":7947,""event"":""pointermove"",""image"":""ham.jpg"",""image_index"":4,""focal_index"":4,""all_images_shown"":false,""x"":329,""y"":282,""grid_col"":3,""grid_row"":3},{""step"":82,""t_ms"":7964,""event"":""pointermove"",""image"":""ham.jpg"",""image_index"":4,""focal_index"":4,""all_images_shown"":false,""x"":321,""y"":276,""grid_col"":3,""grid_row"":3},{""step"":83,""t_ms"":7971,""event"":""pointermove"",""image"":""ham.jpg"",""image_index"":4,""focal_index"":4,""all_images_shown"":false,""x"":317,""y"":274,""grid_col"":3,""grid_row"":3},{""step"":84,""t_ms"":7979,""event"":""pointermove"",""image"":""ham.jpg"",""image_index"":4,""focal_index"":4,""all_images_shown"":false,""x"":315,""y"":272,""grid_col"":3,""grid_row"":3},{""step"":85,""t_ms"":8013,""event"":""pointerup"",""image"":""ham.jpg"",""image_index"":4,""focal_index"":4,""all_images_shown"":false,""x"":320,""y"":312,""grid_col"":3,""grid_row"":3,""placed"":true},{""step"":86,""t_ms"":8013,""event"":""introduce_next_image"",""image"":""salad.jpg"",""image_index"":5,""focal_index"":5,""all_images_shown"":false,""x"":580,""y"":364,""grid_col"":6,""grid_row"":4},{""step"":87,""t_ms"":8483,""event"":""pointerdown"",""image"":""salad.jpg"",""image_index"":5,""focal_index"":5,""all_images_shown"":false,""x"":580,""y"":364,""grid_col"":6,""grid_row"":4},{""step"":88,""t_ms"":8487,""event"":""pointermove"",""image"":""salad.jpg"",""image_index"":5,""focal_index"":5,""all_images_shown"":false,""x"":580,""y"":364,""grid_col"":6,""grid_row"":4},{""step"":89,""t_ms"":8558,""event"":""pointermove"",""image"":""salad.jpg"",""image_index"":5,""focal_index"":5,""all_images_shown"":false,""x"":580,""y"":363,""grid_col"":6,""grid_row"":3},{""step"":90,""t_ms"":8567,""event"":""pointermove"",""image"":""salad.jpg"",""image_index"":5,""focal_index"":5,""all_images_shown"":false,""x"":579,""y"":360,""grid_col"":5,""grid_row"":3},{""step"":91,""t_ms"":8575,""event"":""pointermove"",""image"":""salad.jpg"",""image_index"":5,""focal_index"":5,""all_images_shown"":false,""x"":575,""y"":348,""grid_col"":5,""grid_row"":3},{""step"":92,""t_ms"":8583,""event"":""pointermove"",""image"":""salad.jpg"",""image_index"":5,""focal_index"":5,""all_images_shown"":false,""x"":567,""y"":326,""grid_col"":5,""grid_row"":3},{""step"":93,""t_ms"":8591,""event"":""pointermove"",""image"":""salad.jpg"",""image_index"":5,""focal_index"":5,""all_images_shown"":false,""x"":560,""y"":296,""grid_col"":5,""grid_row"":3},{""step"":94,""t_ms"":8599,""event"":""pointermove"",""image"":""salad.jpg"",""image_index"":5,""focal_index"":5,""all_images_shown"":false,""x"":551,""y"":256,""grid_col"":5,""grid_row"":2},{""step"":95,""t_ms"":8608,""event"":""pointermove"",""image"":""salad.jpg"",""image_index"":5,""focal_index"":5,""all_images_shown"":false,""x"":542,""y"":208,""grid_col"":5,""grid_row"":2},{""step"":96,""t_ms"":8902,""event"":""pointermove"",""image"":""salad.jpg"",""image_index"":5,""focal_index"":5,""all_images_shown"":false,""x"":556,""y"":159,""grid_col"":5,""grid_row"":2},{""step"":97,""t_ms"":8909,""event"":""pointermove"",""image"":""salad.jpg"",""image_index"":5,""focal_index"":5,""all_images_shown"":false,""x"":563,""y"":167,""grid_col"":5,""grid_row"":2},{""step"":98,""t_ms"":8920,""event"":""pointermove"",""image"":""salad.jpg"",""image_index"":5,""focal_index"":5,""all_images_shown"":false,""x"":573,""y"":180,""grid_col"":5,""grid_row"":2},{""step"":99,""t_ms"":8927,""event"":""pointermove"",""image"":""salad.jpg"",""image_index"":5,""focal_index"":5,""all_images_shown"":false,""x"":585,""y"":194,""grid_col"":6,""grid_row"":2},{""step"":100,""t_ms"":8937,""event"":""pointermove"",""image"":""salad.jpg"",""image_index"":5,""focal_index"":5,""all_images_shown"":false,""x"":589,""y"":197,""grid_col"":6,""grid_row"":2},{""step"":101,""t_ms"":8946,""event"":""pointermove"",""image"":""salad.jpg"",""image_index"":5,""focal_index"":5,""all_images_shown"":false,""x"":598,""y"":206,""grid_col"":6,""grid_row"":2},{""step"":102,""t_ms"":8953,""event"":""pointermove"",""image"":""salad.jpg"",""image_index"":5,""focal_index"":5,""all_images_shown"":false,""x"":604,""y"":211,""grid_col"":6,""grid_row"":2},{""step"":103,""t_ms"":8963,""event"":""pointermove"",""image"":""salad.jpg"",""image_index"":5,""focal_index"":5,""all_images_shown"":false,""x"":611,""y"":215,""grid_col"":6,""grid_row"":2},{""step"":104,""t_ms"":8971,""event"":""pointermove"",""image"":""salad.jpg"",""image_index"":5,""focal_index"":5,""all_images_shown"":false,""x"":618,""y"":219,""grid_col"":6,""grid_row"":2},{""step"":105,""t_ms"":8980,""event"":""pointermove"",""image"":""salad.jpg"",""image_index"":5,""focal_index"":5,""all_images_shown"":false,""x"":621,""y"":221,""grid_col"":6,""grid_row"":2},{""step"":106,""t_ms"":9005,""event"":""pointermove"",""image"":""salad.jpg"",""image_index"":5,""focal_index"":5,""all_images_shown"":false,""x"":628,""y"":224,""grid_col"":6,""grid_row"":2},{""step"":107,""t_ms"":9059,""event"":""pointermove"",""image"":""salad.jpg"",""image_index"":5,""focal_index"":5,""all_images_shown"":false,""x"":628,""y"":224,""grid_col"":6,""grid_row"":2},{""step"":108,""t_ms"":9083,""event"":""pointermove"",""image"":""salad.jpg"",""image_index"":5,""focal_index"":5,""all_images_shown"":false,""x"":618,""y"":224,""grid_col"":6,""grid_row"":2},{""step"":109,""t_ms"":9099,""event"":""pointermove"",""image"":""salad.jpg"",""image_index"":5,""focal_index"":5,""all_images_shown"":false,""x"":609,""y"":221,""grid_col"":6,""grid_row"":2},{""step"":110,""t_ms"":9107,""event"":""pointermove"",""image"":""salad.jpg"",""image_index"":5,""focal_index"":5,""all_images_shown"":false,""x"":605,""y"":220,""grid_col"":6,""grid_row"":2},{""step"":111,""t_ms"":9115,""event"":""pointermove"",""image"":""salad.jpg"",""image_index"":5,""focal_index"":5,""all_images_shown"":false,""x"":600,""y"":217,""grid_col"":6,""grid_row"":2},{""step"":112,""t_ms"":9131,""event"":""pointermove"",""image"":""salad.jpg"",""image_index"":5,""focal_index"":5,""all_images_shown"":false,""x"":592,""y"":212,""grid_col"":6,""grid_row"":2},{""step"":113,""t_ms"":9139,""event"":""pointermove"",""image"":""salad.jpg"",""image_index"":5,""focal_index"":5,""all_images_shown"":false,""x"":587,""y"":208,""grid_col"":6,""grid_row"":2},{""step"":114,""t_ms"":9147,""event"":""pointermove"",""image"":""salad.jpg"",""image_index"":5,""focal_index"":5,""all_images_shown"":false,""x"":582,""y"":203,""grid_col"":6,""grid_row"":2},{""step"":115,""t_ms"":9155,""event"":""pointermove"",""image"":""salad.jpg"",""image_index"":5,""focal_index"":5,""all_images_shown"":false,""x"":577,""y"":200,""grid_col"":5,""grid_row"":2},{""step"":116,""t_ms"":9163,""event"":""pointermove"",""image"":""salad.jpg"",""image_index"":5,""focal_index"":5,""all_images_shown"":false,""x"":572,""y"":196,""grid_col"":5,""grid_row"":2},{""step"":117,""t_ms"":9171,""event"":""pointermove"",""image"":""salad.jpg"",""image_index"":5,""focal_index"":5,""all_images_shown"":false,""x"":567,""y"":193,""grid_col"":5,""grid_row"":2},{""step"":118,""t_ms"":9180,""event"":""pointermove"",""image"":""salad.jpg"",""image_index"":5,""focal_index"":5,""all_images_shown"":false,""x"":562,""y"":191,""grid_col"":5,""grid_row"":2},{""step"":119,""t_ms"":9196,""event"":""pointermove"",""image"":""salad.jpg"",""image_index"":5,""focal_index"":5,""all_images_shown"":false,""x"":552,""y"":188,""grid_col"":5,""grid_row"":2},{""step"":120,""t_ms"":9205,""event"":""pointermove"",""image"":""salad.jpg"",""image_index"":5,""focal_index"":5,""all_images_shown"":false,""x"":547,""y"":188,""grid_col"":5,""grid_row"":2},{""step"":121,""t_ms"":9221,""event"":""pointermove"",""image"":""salad.jpg"",""image_index"":5,""focal_index"":5,""all_images_shown"":false,""x"":539,""y"":188,""grid_col"":5,""grid_row"":2},{""step"":122,""t_ms"":9246,""event"":""pointermove"",""image"":""salad.jpg"",""image_index"":5,""focal_index"":5,""all_images_shown"":false,""x"":530,""y"":188,""grid_col"":5,""grid_row"":2},{""step"":123,""t_ms"":9255,""event"":""pointermove"",""image"":""salad.jpg"",""image_index"":5,""focal_index"":5,""all_images_shown"":false,""x"":528,""y"":189,""grid_col"":5,""grid_row"":2},{""step"":124,""t_ms"":9288,""event"":""pointermove"",""image"":""salad.jpg"",""image_index"":5,""focal_index"":5,""all_images_shown"":false,""x"":524,""y"":190,""grid_col"":5,""grid_row"":2},{""step"":125,""t_ms"":9476,""event"":""pointerdown"",""image"":""salad.jpg"",""image_index"":5,""focal_index"":5,""all_images_shown"":false,""x"":522,""y"":192,""grid_col"":5,""grid_row"":2},{""step"":126,""t_ms"":9580,""event"":""pointerup"",""image"":""salad.jpg"",""image_index"":5,""focal_index"":5,""all_images_shown"":false,""x"":528,""y"":208,""grid_col"":5,""grid_row"":2,""placed"":true},{""step"":127,""t_ms"":10561,""event"":""continue_click"",""image"":""salad.jpg"",""image_index"":5,""focal_index"":5,""all_images_shown"":true,""x"":528,""y"":208,""grid_col"":5,""grid_row"":2,""final_continue"":true}]"
"","","","","","html-button-response","6","10826","0.0-6.0","649","
    <div style=""font-size:24px; line-height:1.5; padding:20px;"">
      The practice trial is complete.<br><br>
      You will now begin the main task.
    </div>
  ","0","","","","","","",""
"","","","","","html-button-response","7","11527","0.0-7.0","700","
      <div style=""font-size:24px; line-height:1.5; padding:20px;"">
        Block 1 of 2<br><br>
        This block has 3 trials.
      </div>
    ","0","","","","","","",""
"","","","","","emotion-grid","8","34915","0.0-8.0","","","","demo","main","1","1","1","[{""participant"":""demo"",""phase"":""main"",""block"":1,""trial"":1,""trial_in_block"":1,""image"":""peacock_1.jpg"",""final_img_pos"":""(632, 312)"",""posX"":632,""posY"":312,""grid_col"":6,""grid_row"":3,""introduction_order"":1},{""participant"":""demo"",""phase"":""main"",""block"":1,""trial"":1,""trial_in_block"":1,""image"":""dolphin_1.jpg"",""final_img_pos"":""(424, 208)"",""posX"":424,""posY"":208,""grid_col"":4,""grid_row"":2,""introduction_order"":2},{""participant"":""demo"",""phase"":""main"",""block"":1,""trial"":1,""trial_in_block"":1,""image"":""pigeon_1.jpg"",""final_img_pos"":""(424, 520)"",""posX"":424,""posY"":520,""grid_col"":4,""grid_row"":5,""introduction_order"":3},{""participant"":""demo"",""phase"":""main"",""block"":1,""trial"":1,""trial_in_block"":1,""image"":""fox_1.jpg"",""final_img_pos"":""(632, 624)"",""posX"":632,""posY"":624,""grid_col"":6,""grid_row"":6,""introduction_order"":4},{""participant"":""demo"",""phase"":""main"",""block"":1,""trial"":1,""trial_in_block"":1,""image"":""lion_1.jpg"",""final_img_pos"":""(840, 312)"",""posX"":840,""posY"":312,""grid_col"":8,""grid_row"":3,""introduction_order"":5},{""participant"":""demo"",""phase"":""main"",""block"":1,""trial"":1,""trial_in_block"":1,""image"":""sheep_1.jpg"",""final_img_pos"":""(632, 208)"",""posX"":632,""posY"":208,""grid_col"":6,""grid_row"":2,""introduction_order"":6},{""participant"":""demo"",""phase"":""main"",""block"":1,""trial"":1,""trial_in_block"":1,""image"":""horse_1.jpg"",""final_img_pos"":""(216, 312)"",""posX"":216,""posY"":312,""grid_col"":2,""grid_row"":3,""introduction_order"":7},{""participant"":""demo"",""phase"":""main"",""block"":1,""trial"":1,""trial_in_block"":1,""image"":""fish_1.jpg"",""final_img_pos"":""(216, 520)"",""posX"":216,""posY"":520,""grid_col"":2,""grid_row"":5,""introduction_order"":8},{""participant"":""demo"",""phase"":""main"",""block"":1,""trial"":1,""trial_in_block"":1,""image"":""squirrel_1.jpg"",""final_img_pos"":""(424, 624)"",""posX"":424,""posY"":624,""grid_col"":4,""grid_row"":6,""introduction_order"":9},{""participant"":""demo"",""phase"":""main"",""block"":1,""trial"":1,""trial_in_block"":1,""image"":""butterfly_1.jpg"",""final_img_pos"":""(840, 520)"",""posX"":840,""posY"":520,""grid_col"":8,""grid_row"":5,""introduction_order"":10},{""participant"":""demo"",""phase"":""main"",""block"":1,""trial"":1,""trial_in_block"":1,""image"":""ladybug_1.jpg"",""final_img_pos"":""(840, 104)"",""posX"":840,""posY"":104,""grid_col"":8,""grid_row"":1,""introduction_order"":11},{""participant"":""demo"",""phase"":""main"",""block"":1,""trial"":1,""trial_in_block"":1,""image"":""wolf_1.jpg"",""final_img_pos"":""(736, 208)"",""posX"":736,""posY"":208,""grid_col"":7,""grid_row"":2,""introduction_order"":12}]","[{""step"":0,""t_ms"":11912,""event"":""introduce_first_image"",""image"":""peacock_1.jpg"",""image_index"":0,""focal_index"":0,""all_images_shown"":false,""x"":580,""y"":364,""grid_col"":6,""grid_row"":4},{""step"":1,""t_ms"":12622,""event"":""pointerdown"",""image"":""peacock_1.jpg"",""image_index"":0,""focal_index"":0,""all_images_shown"":false,""x"":580,""y"":364,""grid_col"":6,""grid_row"":4},{""step"":2,""t_ms"":12704,""event"":""pointermove"",""image"":""peacock_1.jpg"",""image_index"":0,""focal_index"":0,""all_images_shown"":false,""x"":580,""y"":364,""grid_col"":6,""grid_row"":3},{""step"":3,""t_ms"":12722,""event"":""pointermove"",""image"":""peacock_1.jpg"",""image_index"":0,""focal_index"":0,""all_images_shown"":false,""x"":581,""y"":355,""grid_col"":6,""grid_row"":3},{""step"":4,""t_ms"":12739,""event"":""pointermove"",""image"":""peacock_1.jpg"",""image_index"":0,""focal_index"":0,""all_images_shown"":false,""x"":585,""y"":342,""grid_col"":6,""grid_row"":3},{""step"":5,""t_ms"":12747,""event"":""pointermove"",""image"":""peacock_1.jpg"",""image_index"":0,""focal_index"":0,""all_images_shown"":false,""x"":590,""y"":331,""grid_col"":6,""grid_row"":3},{""step"":6,""t_ms"":12755,""event"":""pointermove"",""image"":""peacock_1.jpg"",""image_index"":0,""focal_index"":0,""all_images_shown"":false,""x"":598,""y"":318,""grid_col"":6,""grid_row"":3},{""step"":7,""t_ms"":12764,""event"":""pointermove"",""image"":""peacock_1.jpg"",""image_index"":0,""focal_index"":0,""all_images_shown"":false,""x"":604,""y"":307,""grid_col"":6,""grid_row"":3},{""step"":8,""t_ms"":12772,""event"":""pointermove"",""image"":""peacock_1.jpg"",""image_index"":0,""focal_index"":0,""all_images_shown"":false,""x"":610,""y"":297,""grid_col"":6,""grid_row"":3},{""step"":9,""t_ms"":12780,""event"":""pointermove"",""image"":""peacock_1.jpg"",""image_index"":0,""focal_index"":0,""all_images_shown"":false,""x"":618,""y"":286,""grid_col"":6,""grid_row"":3},{""step"":10,""t_ms"":12789,""event"":""pointermove"",""image"":""peacock_1.jpg"",""image_index"":0,""focal_index"":0,""all_images_shown"":false,""x"":623,""y"":278,""grid_col"":6,""grid_row"":3},{""step"":11,""t_ms"":12797,""event"":""pointermove"",""image"":""peacock_1.jpg"",""image_index"":0,""focal_index"":0,""all_images_shown"":false,""x"":627,""y"":272,""grid_col"":6,""grid_row"":3},{""step"":12,""t_ms"":12805,""event"":""pointermove"",""image"":""peacock_1.jpg"",""image_index"":0,""focal_index"":0,""all_images_shown"":false,""x"":631,""y"":267,""grid_col"":6,""grid_row"":3},{""step"":13,""t_ms"":12830,""event"":""pointermove"",""image"":""peacock_1.jpg"",""image_index"":0,""focal_index"":0,""all_images_shown"":false,""x"":636,""y"":261,""grid_col"":6,""grid_row"":3},{""step"":14,""t_ms"":12850,""event"":""pointerup"",""image"":""peacock_1.jpg"",""image_index"":0,""focal_index"":0,""all_images_shown"":false,""x"":632,""y"":312,""grid_col"":6,""grid_row"":3,""placed"":true},{""step"":15,""t_ms"":12850,""event"":""introduce_next_image"",""image"":""dolphin_1.jpg"",""image_index"":1,""focal_index"":1,""all_images_shown"":false,""x"":580,""y"":364,""grid_col"":6,""grid_row"":4},{""step"":16,""t_ms"":13267,""event"":""pointerdown"",""image"":""dolphin_1.jpg"",""image_index"":1,""focal_index"":1,""all_images_shown"":false,""x"":580,""y"":364,""grid_col"":6,""grid_row"":4},{""step"":17,""t_ms"":13351,""event"":""pointermove"",""image"":""dolphin_1.jpg"",""image_index"":1,""focal_index"":1,""all_images_shown"":false,""x"":580,""y"":364,""grid_col"":5,""grid_row"":4},{""step"":18,""t_ms"":13368,""event"":""pointermove"",""image"":""dolphin_1.jpg"",""image_index"":1,""focal_index"":1,""all_images_shown"":false,""x"":573,""y"":363,""grid_col"":5,""grid_row"":3},{""step"":19,""t_ms"":13375,""event"":""pointermove"",""image"":""dolphin_1.jpg"",""image_index"":1,""focal_index"":1,""all_images_shown"":false,""x"":565,""y"":359,""grid_col"":5,""grid_row"":3},{""step"":20,""t_ms"":13386,""event"":""pointermove"",""image"":""dolphin_1.jpg"",""image_index"":1,""focal_index"":1,""all_images_shown"":false,""x"":547,""y"":348,""grid_col"":5,""grid_row"":3},{""step"":21,""t_ms"":13394,""event"":""pointermove"",""image"":""dolphin_1.jpg"",""image_index"":1,""focal_index"":1,""all_images_shown"":false,""x"":526,""y"":332,""grid_col"":5,""grid_row"":3},{""step"":22,""t_ms"":13410,""event"":""pointermove"",""image"":""dolphin_1.jpg"",""image_index"":1,""focal_index"":1,""all_images_shown"":false,""x"":486,""y"":285,""grid_col"":5,""grid_row"":3},{""step"":23,""t_ms"":13418,""event"":""pointermove"",""image"":""dolphin_1.jpg"",""image_index"":1,""focal_index"":1,""all_images_shown"":false,""x"":472,""y"":265,""grid_col"":4,""grid_row"":3},{""step"":24,""t_ms"":13425,""event"":""pointermove"",""image"":""dolphin_1.jpg"",""image_index"":1,""focal_index"":1,""all_images_shown"":false,""x"":462,""y"":249,""grid_col"":4,""grid_row"":2},{""step"":25,""t_ms"":13435,""event"":""pointermove"",""image"":""dolphin_1.jpg"",""image_index"":1,""focal_index"":1,""all_images_shown"":false,""x"":449,""y"":224,""grid_col"":4,""grid_row"":2},{""step"":26,""t_ms"":13443,""event"":""pointermove"",""image"":""dolphin_1.jpg"",""image_index"":1,""focal_index"":1,""all_images_shown"":false,""x"":439,""y"":206,""grid_col"":4,""grid_row"":2},{""step"":27,""t_ms"":13451,""event"":""pointermove"",""image"":""dolphin_1.jpg"",""image_index"":1,""focal_index"":1,""all_images_shown"":false,""x"":434,""y"":196,""grid_col"":4,""grid_row"":2},{""step"":28,""t_ms"":13459,""event"":""pointermove"",""image"":""dolphin_1.jpg"",""image_index"":1,""focal_index"":1,""all_images_shown"":false,""x"":429,""y"":185,""grid_col"":4,""grid_row"":2},{""step"":29,""t_ms"":13468,""event"":""pointermove"",""image"":""dolphin_1.jpg"",""image_index"":1,""focal_index"":1,""all_images_shown"":false,""x"":425,""y"":177,""grid_col"":4,""grid_row"":2},{""step"":30,""t_ms"":13476,""event"":""pointermove"",""image"":""dolphin_1.jpg"",""image_index"":1,""focal_index"":1,""all_images_shown"":false,""x"":423,""y"":171,""grid_col"":4,""grid_row"":2},{""step"":31,""t_ms"":13493,""event"":""pointermove"",""image"":""dolphin_1.jpg"",""image_index"":1,""focal_index"":1,""all_images_shown"":false,""x"":419,""y"":163,""grid_col"":4,""grid_row"":2},{""step"":32,""t_ms"":13504,""event"":""pointerup"",""image"":""dolphin_1.jpg"",""image_index"":1,""focal_index"":1,""all_images_shown"":false,""x"":424,""y"":208,""grid_col"":4,""grid_row"":2,""placed"":true},{""step"":33,""t_ms"":13504,""event"":""introduce_next_image"",""image"":""pigeon_1.jpg"",""image_index"":2,""focal_index"":2,""all_images_shown"":false,""x"":580,""y"":364,""grid_col"":6,""grid_row"":4},{""step"":34,""t_ms"":13956,""event"":""pointerdown"",""image"":""pigeon_1.jpg"",""image_index"":2,""focal_index"":2,""all_images_shown"":false,""x"":580,""y"":364,""grid_col"":6,""grid_row"":4},{""step"":35,""t_ms"":13959,""event"":""pointermove"",""image"":""pigeon_1.jpg"",""image_index"":2,""focal_index"":2,""all_images_shown"":false,""x"":580,""y"":364,""grid_col"":6,""grid_row"":3},{""step"":36,""t_ms"":14021,""event"":""pointermove"",""image"":""pigeon_1.jpg"",""image_index"":2,""focal_index"":2,""all_images_shown"":false,""x"":580,""y"":364,""grid_col"":5,""grid_row"":3},{""step"":37,""t_ms"":14037,""event"":""pointermove"",""image"":""pigeon_1.jpg"",""image_index"":2,""focal_index"":2,""all_images_shown"":false,""x"":572,""y"":365,""grid_col"":5,""grid_row"":4},{""step"":38,""t_ms"":14045,""event"":""pointermove"",""image"":""pigeon_1.jpg"",""image_index"":2,""focal_index"":2,""all_images_shown"":false,""x"":563,""y"":367,""grid_col"":5,""grid_row"":4},{""step"":39,""t_ms"":14053,""event"":""pointermove"",""image"":""pigeon_1.jpg"",""image_index"":2,""focal_index"":2,""all_images_shown"":false,""x"":552,""y"":372,""grid_col"":5,""grid_row"":4},{""step"":40,""t_ms"":14062,""event"":""pointermove"",""image"":""pigeon_1.jpg"",""image_index"":2,""focal_index"":2,""all_images_shown"":false,""x"":537,""y"":380,""grid_col"":5,""grid_row"":4},{""step"":41,""t_ms"":14070,""event"":""pointermove"",""image"":""pigeon_1.jpg"",""image_index"":2,""focal_index"":2,""all_images_shown"":false,""x"":520,""y"":390,""grid_col"":5,""grid_row"":4},{""step"":42,""t_ms"":14076,""event"":""pointermove"",""image"":""pigeon_1.jpg"",""image_index"":2,""focal_index"":2,""all_images_shown"":false,""x"":504,""y"":399,""grid_col"":5,""grid_row"":4},{""step"":43,""t_ms"":14084,""event"":""pointermove"",""image"":""pigeon_1.jpg"",""image_index"":2,""focal_index"":2,""all_images_shown"":false,""x"":487,""y"":410,""grid_col"":5,""grid_row"":4},{""step"":44,""t_ms"":14093,""event"":""pointermove"",""image"":""pigeon_1.jpg"",""image_index"":2,""focal_index"":2,""all_images_shown"":false,""x"":467,""y"":423,""grid_col"":4,""grid_row"":4},{""step"":45,""t_ms"":14102,""event"":""pointermove"",""image"":""pigeon_1.jpg"",""image_index"":2,""focal_index"":2,""all_images_shown"":false,""x"":445,""y"":438,""grid_col"":4,""grid_row"":4},{""step"":46,""t_ms"":14109,""event"":""pointermove"",""image"":""pigeon_1.jpg"",""image_index"":2,""focal_index"":2,""all_images_shown"":false,""x"":429,""y"":450,""grid_col"":4,""grid_row"":4},{""step"":47,""t_ms"":14118,""event"":""pointermove"",""image"":""pigeon_1.jpg"",""image_index"":2,""focal_index"":2,""all_images_shown"":false,""x"":415,""y"":460,""grid_col"":4,""grid_row"":4},{""step"":48,""t_ms"":14126,""event"":""pointermove"",""image"":""pigeon_1.jpg"",""image_index"":2,""focal_index"":2,""all_images_shown"":false,""x"":403,""y"":468,""grid_col"":4,""grid_row"":4},{""step"":49,""t_ms"":14134,""event"":""pointermove"",""image"":""pigeon_1.jpg"",""image_index"":2,""focal_index"":2,""all_images_shown"":false,""x"":395,""y"":473,""grid_col"":4,""grid_row"":5},{""step"":50,""t_ms"":14143,""event"":""pointermove"",""image"":""pigeon_1.jpg"",""image_index"":2,""focal_index"":2,""all_images_shown"":false,""x"":386,""y"":479,""grid_col"":4,""grid_row"":5},{""step"":51,""t_ms"":14159,""event"":""pointermove"",""image"":""pigeon_1.jpg"",""image_index"":2,""focal_index"":2,""all_images_shown"":false,""x"":379,""y"":482,""grid_col"":4,""grid_row"":5},{""step"":52,""t_ms"":14192,""event"":""pointerup"",""image"":""pigeon_1.jpg"",""image_index"":2,""focal_index"":2,""all_images_shown"":false,""x"":424,""y"":520,""grid_col"":4,""grid_row"":5,""placed"":true},{""step"":53,""t_ms"":14192,""event"":""introduce_next_image"",""image"":""fox_1.jpg"",""image_index"":3,""focal_index"":3,""all_images_shown"":false,""x"":580,""y"":364,""grid_col"":6,""grid_row"":4},{""step"":54,""t_ms"":14846,""event"":""pointerdown"",""image"":""fox_1.jpg"",""image_index"":3,""focal_index"":3,""all_images_shown"":false,""x"":580,""y"":364,""grid_col"":6,""grid_row"":4},{""step"":55,""t_ms"":14933,""event"":""pointermove"",""image"":""fox_1.jpg"",""image_index"":3,""focal_index"":3,""all_images_shown"":false,""x"":580,""y"":365,""grid_col"":6,""grid_row"":4},{""step"":56,""t_ms"":14946,""event"":""pointermove"",""image"":""fox_1.jpg"",""image_index"":3,""focal_index"":3,""all_images_shown"":false,""x"":580,""y"":385,""grid_col"":6,""grid_row"":4},{""step"":57,""t_ms"":14954,""event"":""pointermove"",""image"":""fox_1.jpg"",""image_index"":3,""focal_index"":3,""all_images_shown"":false,""x"":580,""y"":404,""grid_col"":6,""grid_row"":4},{""step"":58,""t_ms"":14962,""event"":""pointermove"",""image"":""fox_1.jpg"",""image_index"":3,""focal_index"":3,""all_images_shown"":false,""x"":580,""y"":424,""grid_col"":6,""grid_row"":4},{""step"":59,""t_ms"":14970,""event"":""pointermove"",""image"":""fox_1.jpg"",""image_index"":3,""focal_index"":3,""all_images_shown"":false,""x"":580,""y"":452,""grid_col"":6,""grid_row"":4},{""step"":60,""t_ms"":14979,""event"":""pointermove"",""image"":""fox_1.jpg"",""image_index"":3,""focal_index"":3,""all_images_shown"":false,""x"":580,""y"":481,""grid_col"":6,""grid_row"":5},{""step"":61,""t_ms"":14987,""event"":""pointermove"",""image"":""fox_1.jpg"",""image_index"":3,""focal_index"":3,""all_images_shown"":false,""x"":581,""y"":500,""grid_col"":6,""grid_row"":5},{""step"":62,""t_ms"":14995,""event"":""pointermove"",""image"":""fox_1.jpg"",""image_index"":3,""focal_index"":3,""all_images_shown"":false,""x"":583,""y"":516,""grid_col"":6,""grid_row"":5},{""step"":63,""t_ms"":15004,""event"":""pointermove"",""image"":""fox_1.jpg"",""image_index"":3,""focal_index"":3,""all_images_shown"":false,""x"":588,""y"":533,""grid_col"":6,""grid_row"":5},{""step"":64,""t_ms"":15012,""event"":""pointermove"",""image"":""fox_1.jpg"",""image_index"":3,""focal_index"":3,""all_images_shown"":false,""x"":592,""y"":546,""grid_col"":6,""grid_row"":5},{""step"":65,""t_ms"":15020,""event"":""pointermove"",""image"":""fox_1.jpg"",""image_index"":3,""focal_index"":3,""all_images_shown"":false,""x"":595,""y"":552,""grid_col"":6,""grid_row"":5},{""step"":66,""t_ms"":15026,""event"":""pointermove"",""image"":""fox_1.jpg"",""image_index"":3,""focal_index"":3,""all_images_shown"":false,""x"":597,""y"":555,""grid_col"":6,""grid_row"":5},{""step"":67,""t_ms"":15034,""event"":""pointermove"",""image"":""fox_1.jpg"",""image_index"":3,""focal_index"":3,""all_images_shown"":false,""x"":598,""y"":559,""grid_col"":6,""grid_row"":5},{""step"":68,""t_ms"":15051,""event"":""pointermove"",""image"":""fox_1.jpg"",""image_index"":3,""focal_index"":3,""all_images_shown"":false,""x"":601,""y"":566,""grid_col"":6,""grid_row"":5},{""step"":69,""t_ms"":15076,""event"":""pointermove"",""image"":""fox_1.jpg"",""image_index"":3,""focal_index"":3,""all_images_shown"":false,""x"":604,""y"":572,""grid_col"":6,""grid_row"":5},{""step"":70,""t_ms"":15084,""event"":""pointermove"",""image"":""fox_1.jpg"",""image_index"":3,""focal_index"":3,""all_images_shown"":false,""x"":605,""y"":573,""grid_col"":6,""grid_row"":6},{""step"":71,""t_ms"":15158,""event"":""pointerup"",""image"":""fox_1.jpg"",""image_index"":3,""focal_index"":3,""all_images_shown"":false,""x"":632,""y"":624,""grid_col"":6,""grid_row"":6,""placed"":true},{""step"":72,""t_ms"":15158,""event"":""introduce_next_image"",""image"":""lion_1.jpg"",""image_index"":4,""focal_index"":4,""all_images_shown"":false,""x"":580,""y"":364,""grid_col"":6,""grid_row"":4},{""step"":73,""t_ms"":15620,""event"":""pointerdown"",""image"":""lion_1.jpg"",""image_index"":4,""focal_index"":4,""all_images_shown"":false,""x"":580,""y"":364,""grid_col"":6,""grid_row"":4},{""step"":74,""t_ms"":15626,""event"":""pointermove"",""image"":""lion_1.jpg"",""image_index"":4,""focal_index"":4,""all_images_shown"":false,""x"":580,""y"":364,""grid_col"":6,""grid_row"":3},{""step"":75,""t_ms"":15712,""event"":""pointermove"",""image"":""lion_1.jpg"",""image_index"":4,""focal_index"":4,""all_images_shown"":false,""x"":592,""y"":364,""grid_col"":6,""grid_row"":3},{""step"":76,""t_ms"":15720,""event"":""pointermove"",""image"":""lion_1.jpg"",""image_index"":4,""focal_index"":4,""all_images_shown"":false,""x"":611,""y"":364,""grid_col"":6,""grid_row"":3},{""step"":77,""t_ms"":15729,""event"":""pointermove"",""image"":""lion_1.jpg"",""image_index"":4,""focal_index"":4,""all_images_shown"":false,""x"":641,""y"":364,""grid_col"":6,""grid_row"":3},{""step"":78,""t_ms"":15737,""event"":""pointermove"",""image"":""lion_1.jpg"",""image_index"":4,""focal_index"":4,""all_images_shown"":false,""x"":674,""y"":364,""grid_col"":6,""grid_row"":3},{""step"":79,""t_ms"":15745,""event"":""pointermove"",""image"":""lion_1.jpg"",""image_index"":4,""focal_index"":4,""all_images_shown"":false,""x"":714,""y"":364,""grid_col"":7,""grid_row"":3},{""step"":80,""t_ms"":15754,""event"":""pointermove"",""image"":""lion_1.jpg"",""image_index"":4,""focal_index"":4,""all_images_shown"":false,""x"":746,""y"":364,""grid_col"":7,""grid_row"":3},{""step"":81,""t_ms"":15762,""event"":""pointermove"",""image"":""lion_1.jpg"",""image_index"":4,""focal_index"":4,""all_images_shown"":false,""x"":773,""y"":364,""grid_col"":7,""grid_row"":3},{""step"":82,""t_ms"":16160,""event"":""pointermove"",""image"":""lion_1.jpg"",""image_index"":4,""focal_index"":4,""all_images_shown"":false,""x"":817,""y"":363,""grid_col"":8,""grid_row"":3},{""step"":83,""t_ms"":16176,""event"":""pointermove"",""image"":""lion_1.jpg"",""image_index"":4,""focal_index"":4,""all_images_shown"":false,""x"":812,""y"":361,""grid_col"":8,""grid_row"":3},{""step"":84,""t_ms"":16201,""event"":""pointermove"",""image"":""lion_1.jpg"",""image_index"":4,""focal_index"":4,""all_images_shown"":false,""x"":804,""y"":355,""grid_col"":8,""grid_row"":3},{""step"":85,""t_ms"":16209,""event"":""pointermove"",""image"":""lion_1.jpg"",""image_index"":4,""focal_index"":4,""all_images_shown"":false,""x"":802,""y"":354,""grid_col"":8,""grid_row"":3},{""step"":86,""t_ms"":16286,""event"":""pointermove"",""image"":""lion_1.jpg"",""image_index"":4,""focal_index"":4,""all_images_shown"":false,""x"":794,""y"":350,""grid_col"":8,""grid_row"":3},{""step"":87,""t_ms"":16343,""event"":""pointermove"",""image"":""lion_1.jpg"",""image_index"":4,""focal_index"":4,""all_images_shown"":false,""x"":788,""y"":348,""grid_col"":7,""grid_row"":3},{""step"":88,""t_ms"":16365,""event"":""pointermove"",""image"":""lion_1.jpg"",""image_index"":4,""focal_index"":4,""all_images_shown"":false,""x"":788,""y"":348,""grid_col"":7,""grid_row"":3},{""step"":89,""t_ms"":16381,""event"":""pointermove"",""image"":""lion_1.jpg"",""image_index"":4,""focal_index"":4,""all_images_shown"":false,""x"":789,""y"":346,""grid_col"":8,""grid_row"":3},{""step"":90,""t_ms"":16404,""event"":""pointermove"",""image"":""lion_1.jpg"",""image_index"":4,""focal_index"":4,""all_images_shown"":false,""x"":798,""y"":343,""grid_col"":8,""grid_row"":3},{""step"":91,""t_ms"":16420,""event"":""pointermove"",""image"":""lion_1.jpg"",""image_index"":4,""focal_index"":4,""all_images_shown"":false,""x"":807,""y"":341,""grid_col"":8,""grid_row"":3},{""step"":92,""t_ms"":16428,""event"":""pointermove"",""image"":""lion_1.jpg"",""image_index"":4,""focal_index"":4,""all_images_shown"":false,""x"":812,""y"":341,""grid_col"":8,""grid_row"":3},{""step"":93,""t_ms"":16444,""event"":""pointermove"",""image"":""lion_1.jpg"",""image_index"":4,""focal_index"":4,""all_images_shown"":false,""x"":821,""y"":339,""grid_col"":8,""grid_row"":3},{""step"":94,""t_ms"":16460,""event"":""pointermove"",""image"":""lion_1.jpg"",""image_index"":4,""focal_index"":4,""all_images_shown"":false,""x"":831,""y"":336,""grid_col"":8,""grid_row"":3},{""step"":95,""t_ms"":16476,""event"":""pointermove"",""image"":""lion_1.jpg"",""image_index"":4,""focal_index"":4,""all_images_shown"":false,""x"":839,""y"":330,""grid_col"":8,""grid_row"":3},{""step"":96,""t_ms"":16493,""event"":""pointermove"",""image"":""lion_1.jpg"",""image_index"":4,""focal_index"":4,""all_images_shown"":false,""x"":846,""y"":321,""grid_col"":8,""grid_row"":3},{""step"":97,""t_ms"":16509,""event"":""pointermove"",""image"":""lion_1.jpg"",""image_index"":4,""focal_index"":4,""all_images_shown"":false,""x"":849,""y"":316,""grid_col"":8,""grid_row"":3},{""step"":98,""t_ms"":16543,""event"":""pointermove"",""image"":""lion_1.jpg"",""image_index"":4,""focal_index"":4,""all_images_shown"":false,""x"":852,""y"":307,""grid_col"":8,""grid_row"":3},{""step"":99,""t_ms"":16659,""event"":""pointerdown"",""image"":""lion_1.jpg"",""image_index"":4,""focal_index"":4,""all_images_shown"":false,""x"":853,""y"":304,""grid_col"":8,""grid_row"":3},{""step"":100,""t_ms"":16742,""event"":""pointerup"",""image"":""lion_1.jpg"",""image_index"":4,""focal_index"":4,""all_images_shown"":false,""x"":840,""y"":312,""grid_col"":8,""grid_row"":3,""placed"":true},{""step"":101,""t_ms"":16742,""event"":""introduce_next_image"",""image"":""sheep_1.jpg"",""image_index"":5,""focal_index"":5,""all_images_shown"":false,""x"":580,""y"":364,""grid_col"":6,""grid_row"":4},{""step"":102,""t_ms"":17334,""event"":""pointerdown"",""image"":""sheep_1.jpg"",""image_index"":5,""focal_index"":5,""all_images_shown"":false,""x"":580,""y"":364,""grid_col"":6,""grid_row"":4},{""step"":103,""t_ms"":17410,""event"":""pointermove"",""image"":""sheep_1.jpg"",""image_index"":5,""focal_index"":5,""all_images_shown"":false,""x"":580,""y"":364,""grid_col"":6,""grid_row"":3},{""step"":104,""t_ms"":17434,""event"":""pointermove"",""image"":""sheep_1.jpg"",""image_index"":5,""focal_index"":5,""all_images_shown"":false,""x"":581,""y"":352,""grid_col"":6,""grid_row"":3},{""step"":105,""t_ms"":17442,""event"":""pointermove"",""image"":""sheep_1.jpg"",""image_index"":5,""focal_index"":5,""all_images_shown"":false,""x"":583,""y"":340,""grid_col"":6,""grid_row"":3},{""step"":106,""t_ms"":17451,""event"":""pointermove"",""image"":""sheep_1.jpg"",""image_index"":5,""focal_index"":5,""all_images_shown"":false,""x"":587,""y"":325,""grid_col"":6,""grid_row"":3},{""step"":107,""t_ms"":17460,""event"":""pointermove"",""image"":""sheep_1.jpg"",""image_index"":5,""focal_index"":5,""all_images_shown"":false,""x"":593,""y"":305,""grid_col"":6,""grid_row"":3},{""step"":108,""t_ms"":17467,""event"":""pointermove"",""image"":""sheep_1.jpg"",""image_index"":5,""focal_index"":5,""all_images_shown"":false,""x"":601,""y"":282,""grid_col"":6,""grid_row"":3},{""step"":109,""t_ms"":17476,""event"":""pointermove"",""image"":""sheep_1.jpg"",""image_index"":5,""focal_index"":5,""all_images_shown"":false,""x"":608,""y"":259,""grid_col"":6,""grid_row"":2},{""step"":110,""t_ms"":17484,""event"":""pointermove"",""image"":""sheep_1.jpg"",""image_index"":5,""focal_index"":5,""all_images_shown"":false,""x"":615,""y"":242,""grid_col"":6,""grid_row"":2},{""step"":111,""t_ms"":17493,""event"":""pointermove"",""image"":""sheep_1.jpg"",""image_index"":5,""focal_index"":5,""all_images_shown"":false,""x"":619,""y"":228,""grid_col"":6,""grid_row"":2},{""step"":112,""t_ms"":17501,""event"":""pointermove"",""image"":""sheep_1.jpg"",""image_index"":5,""focal_index"":5,""all_images_shown"":false,""x"":625,""y"":211,""grid_col"":6,""grid_row"":2},{""step"":113,""t_ms"":17509,""event"":""pointermove"",""image"":""sheep_1.jpg"",""image_index"":5,""focal_index"":5,""all_images_shown"":false,""x"":630,""y"":196,""grid_col"":6,""grid_row"":2},{""step"":114,""t_ms"":17526,""event"":""pointermove"",""image"":""sheep_1.jpg"",""image_index"":5,""focal_index"":5,""all_images_shown"":false,""x"":635,""y"":184,""grid_col"":6,""grid_row"":2},{""step"":115,""t_ms"":17534,""event"":""pointermove"",""image"":""sheep_1.jpg"",""image_index"":5,""focal_index"":5,""all_images_shown"":false,""x"":636,""y"":180,""grid_col"":6,""grid_row"":2},{""step"":116,""t_ms"":17543,""event"":""pointermove"",""image"":""sheep_1.jpg"",""image_index"":5,""focal_index"":5,""all_images_shown"":false,""x"":638,""y"":176,""grid_col"":6,""grid_row"":2},{""step"":117,""t_ms"":17568,""event"":""pointermove"",""image"":""sheep_1.jpg"",""image_index"":5,""focal_index"":5,""all_images_shown"":false,""x"":639,""y"":171,""grid_col"":6,""grid_row"":2},{""step"":118,""t_ms"":17688,""event"":""pointerup"",""image"":""sheep_1.jpg"",""image_index"":5,""focal_index"":5,""all_images_shown"":false,""x"":632,""y"":208,""grid_col"":6,""grid_row"":2,""placed"":true},{""step"":119,""t_ms"":17688,""event"":""introduce_next_image"",""image"":""horse_1.jpg"",""image_index"":6,""focal_index"":6,""all_images_shown"":false,""x"":580,""y"":364,""grid_col"":6,""grid_row"":4},{""step"":120,""t_ms"":18339,""event"":""pointerdown"",""image"":""horse_1.jpg"",""image_index"":6,""focal_index"":6,""all_images_shown"":false,""x"":580,""y"":364,""grid_col"":6,""grid_row"":4},{""step"":121,""t_ms"":18343,""event"":""pointermove"",""image"":""horse_1.jpg"",""image_index"":6,""focal_index"":6,""all_images_shown"":false,""x"":580,""y"":364,""grid_col"":6,""grid_row"":4},{""step"":122,""t_ms"":18404,""event"":""pointermove"",""image"":""horse_1.jpg"",""image_index"":6,""focal_index"":6,""all_images_shown"":false,""x"":578,""y"":364,""grid_col"":5,""grid_row"":4},{""step"":123,""t_ms"":18412,""event"":""pointermove"",""image"":""horse_1.jpg"",""image_index"":6,""focal_index"":6,""all_images_shown"":false,""x"":572,""y"":364,""grid_col"":5,""grid_row"":4},{""step"":124,""t_ms"":18420,""event"":""pointermove"",""image"":""horse_1.jpg"",""image_index"":6,""focal_index"":6,""all_images_shown"":false,""x"":561,""y"":364,""grid_col"":5,""grid_row"":4},{""step"":125,""t_ms"":18429,""event"":""pointermove"",""image"":""horse_1.jpg"",""image_index"":6,""focal_index"":6,""all_images_shown"":false,""x"":536,""y"":364,""grid_col"":5,""grid_row"":4},{""step"":126,""t_ms"":18437,""event"":""pointermove"",""image"":""horse_1.jpg"",""image_index"":6,""focal_index"":6,""all_images_shown"":false,""x"":503,""y"":364,""grid_col"":5,""grid_row"":4},{""step"":127,""t_ms"":18446,""event"":""pointermove"",""image"":""horse_1.jpg"",""image_index"":6,""focal_index"":6,""all_images_shown"":false,""x"":470,""y"":364,""grid_col"":4,""grid_row"":4},{""step"":128,""t_ms"":18453,""event"":""pointermove"",""image"":""horse_1.jpg"",""image_index"":6,""focal_index"":6,""all_images_shown"":false,""x"":431,""y"":364,""grid_col"":4,""grid_row"":4},{""step"":129,""t_ms"":18459,""event"":""pointermove"",""image"":""horse_1.jpg"",""image_index"":6,""focal_index"":6,""all_images_shown"":false,""x"":397,""y"":362,""grid_col"":4,""grid_row"":3},{""step"":130,""t_ms"":18468,""event"":""pointermove"",""image"":""horse_1.jpg"",""image_index"":6,""focal_index"":6,""all_images_shown"":false,""x"":362,""y"":357,""grid_col"":3,""grid_row"":3},{""step"":131,""t_ms"":18476,""event"":""pointermove"",""image"":""horse_1.jpg"",""image_index"":6,""focal_index"":6,""all_images_shown"":false,""x"":327,""y"":351,""grid_col"":3,""grid_row"":3},{""step"":132,""t_ms"":18485,""event"":""pointermove"",""image"":""horse_1.jpg"",""image_index"":6,""focal_index"":6,""all_images_shown"":false,""x"":294,""y"":346,""grid_col"":3,""grid_row"":3},{""step"":133,""t_ms"":18493,""event"":""pointermove"",""image"":""horse_1.jpg"",""image_index"":6,""focal_index"":6,""all_images_shown"":false,""x"":266,""y"":341,""grid_col"":2,""grid_row"":3},{""step"":134,""t_ms"":18501,""event"":""pointermove"",""image"":""horse_1.jpg"",""image_index"":6,""focal_index"":6,""all_images_shown"":false,""x"":243,""y"":339,""grid_col"":2,""grid_row"":3},{""step"":135,""t_ms"":18509,""event"":""pointermove"",""image"":""horse_1.jpg"",""image_index"":6,""focal_index"":6,""all_images_shown"":false,""x"":224,""y"":337,""grid_col"":2,""grid_row"":3},{""step"":136,""t_ms"":18518,""event"":""pointermove"",""image"":""horse_1.jpg"",""image_index"":6,""focal_index"":6,""all_images_shown"":false,""x"":216,""y"":336,""grid_col"":2,""grid_row"":3},{""step"":137,""t_ms"":18526,""event"":""pointermove"",""image"":""horse_1.jpg"",""image_index"":6,""focal_index"":6,""all_images_shown"":false,""x"":208,""y"":336,""grid_col"":2,""grid_row"":3},{""step"":138,""t_ms"":18534,""event"":""pointermove"",""image"":""horse_1.jpg"",""image_index"":6,""focal_index"":6,""all_images_shown"":false,""x"":199,""y"":336,""grid_col"":2,""grid_row"":3},{""step"":139,""t_ms"":18543,""event"":""pointermove"",""image"":""horse_1.jpg"",""image_index"":6,""focal_index"":6,""all_images_shown"":false,""x"":194,""y"":335,""grid_col"":2,""grid_row"":3},{""step"":140,""t_ms"":18600,""event"":""pointerup"",""image"":""horse_1.jpg"",""image_index"":6,""focal_index"":6,""all_images_shown"":false,""x"":216,""y"":312,""grid_col"":2,""grid_row"":3,""placed"":true},{""step"":141,""t_ms"":18600,""event"":""introduce_next_image"",""image"":""fish_1.jpg"",""image_index"":7,""focal_index"":7,""all_images_shown"":false,""x"":580,""y"":364,""grid_col"":6,""grid_row"":4},{""step"":142,""t_ms"":19141,""event"":""pointerdown"",""image"":""fish_1.jpg"",""image_index"":7,""focal_index"":7,""all_images_shown"":false,""x"":580,""y"":364,""grid_col"":6,""grid_row"":4},{""step"":143,""t_ms"":19151,""event"":""pointermove"",""image"":""fish_1.jpg"",""image_index"":7,""focal_index"":7,""all_images_shown"":false,""x"":580,""y"":364,""grid_col"":6,""grid_row"":4},{""step"":144,""t_ms"":19276,""event"":""pointermove"",""image"":""fish_1.jpg"",""image_index"":7,""focal_index"":7,""all_images_shown"":false,""x"":578,""y"":365,""grid_col"":5,""grid_row"":4},{""step"":145,""t_ms"":19293,""event"":""pointermove"",""image"":""fish_1.jpg"",""image_index"":7,""focal_index"":7,""all_images_shown"":false,""x"":557,""y"":379,""grid_col"":5,""grid_row"":4},{""step"":146,""t_ms"":20051,""event"":""pointermove"",""image"":""fish_1.jpg"",""image_index"":7,""focal_index"":7,""all_images_shown"":false,""x"":542,""y"":431,""grid_col"":5,""grid_row"":4},{""step"":147,""t_ms"":20068,""event"":""pointermove"",""image"":""fish_1.jpg"",""image_index"":7,""focal_index"":7,""all_images_shown"":false,""x"":547,""y"":428,""grid_col"":5,""grid_row"":4},{""step"":148,""t_ms"":20076,""event"":""pointermove"",""image"":""fish_1.jpg"",""image_index"":7,""focal_index"":7,""all_images_shown"":false,""x"":550,""y"":426,""grid_col"":5,""grid_row"":4},{""step"":149,""t_ms"":20113,""event"":""pointermove"",""image"":""fish_1.jpg"",""image_index"":7,""focal_index"":7,""all_images_shown"":false,""x"":555,""y"":420,""grid_col"":5,""grid_row"":4},{""step"":150,""t_ms"":20130,""event"":""pointermove"",""image"":""fish_1.jpg"",""image_index"":7,""focal_index"":7,""all_images_shown"":false,""x"":556,""y"":416,""grid_col"":5,""grid_row"":4},{""step"":151,""t_ms"":20155,""event"":""pointermove"",""image"":""fish_1.jpg"",""image_index"":7,""focal_index"":7,""all_images_shown"":false,""x"":558,""y"":412,""grid_col"":5,""grid_row"":4},{""step"":152,""t_ms"":20221,""event"":""pointerdown"",""image"":""fish_1.jpg"",""image_index"":7,""focal_index"":7,""all_images_shown"":false,""x"":561,""y"":407,""grid_col"":5,""grid_row"":4},{""step"":153,""t_ms"":20347,""event"":""pointermove"",""image"":""fish_1.jpg"",""image_index"":7,""focal_index"":7,""all_images_shown"":false,""x"":555,""y"":407,""grid_col"":5,""grid_row"":4},{""step"":154,""t_ms"":20364,""event"":""pointermove"",""image"":""fish_1.jpg"",""image_index"":7,""focal_index"":7,""all_images_shown"":false,""x"":543,""y"":408,""grid_col"":5,""grid_row"":4},{""step"":155,""t_ms"":20372,""event"":""pointermove"",""image"":""fish_1.jpg"",""image_index"":7,""focal_index"":7,""all_images_shown"":false,""x"":535,""y"":410,""grid_col"":5,""grid_row"":4},{""step"":156,""t_ms"":20380,""event"":""pointermove"",""image"":""fish_1.jpg"",""image_index"":7,""focal_index"":7,""all_images_shown"":false,""x"":527,""y"":412,""grid_col"":5,""grid_row"":4},{""step"":157,""t_ms"":20388,""event"":""pointermove"",""image"":""fish_1.jpg"",""image_index"":7,""focal_index"":7,""all_images_shown"":false,""x"":512,""y"":417,""grid_col"":5,""grid_row"":4},{""step"":158,""t_ms"":20397,""event"":""pointermove"",""image"":""fish_1.jpg"",""image_index"":7,""focal_index"":7,""all_images_shown"":false,""x"":494,""y"":422,""grid_col"":5,""grid_row"":4},{""step"":159,""t_ms"":20405,""event"":""pointermove"",""image"":""fish_1.jpg"",""image_index"":7,""focal_index"":7,""all_images_shown"":false,""x"":477,""y"":427,""grid_col"":5,""grid_row"":4},{""step"":160,""t_ms"":20413,""event"":""pointermove"",""image"":""fish_1.jpg"",""image_index"":7,""focal_index"":7,""all_images_shown"":false,""x"":459,""y"":433,""grid_col"":4,""grid_row"":4},{""step"":161,""t_ms"":22130,""event"":""pointermove"",""image"":""fish_1.jpg"",""image_index"":7,""focal_index"":7,""all_images_shown"":false,""x"":511,""y"":491,""grid_col"":5,""grid_row"":5},{""step"":162,""t_ms"":22143,""event"":""pointermove"",""image"":""fish_1.jpg"",""image_index"":7,""focal_index"":7,""all_images_shown"":false,""x"":518,""y"":481,""grid_col"":5,""grid_row"":5},{""step"":163,""t_ms"":22147,""event"":""pointermove"",""image"":""fish_1.jpg"",""image_index"":7,""focal_index"":7,""all_images_shown"":false,""x"":525,""y"":470,""grid_col"":5,""grid_row"":5},{""step"":164,""t_ms"":22155,""event"":""pointermove"",""image"":""fish_1.jpg"",""image_index"":7,""focal_index"":7,""all_images_shown"":false,""x"":528,""y"":459,""grid_col"":5,""grid_row"":4},{""step"":165,""t_ms"":22164,""event"":""pointermove"",""image"":""fish_1.jpg"",""image_index"":7,""focal_index"":7,""all_images_shown"":false,""x"":531,""y"":448,""grid_col"":5,""grid_row"":4},{""step"":166,""t_ms"":22169,""event"":""pointermove"",""image"":""fish_1.jpg"",""image_index"":7,""focal_index"":7,""all_images_shown"":false,""x"":532,""y"":438,""grid_col"":5,""grid_row"":4},{""step"":167,""t_ms"":22177,""event"":""pointermove"",""image"":""fish_1.jpg"",""image_index"":7,""focal_index"":7,""all_images_shown"":false,""x"":533,""y"":426,""grid_col"":5,""grid_row"":4},{""step"":168,""t_ms"":22185,""event"":""pointermove"",""image"":""fish_1.jpg"",""image_index"":7,""focal_index"":7,""all_images_shown"":false,""x"":533,""y"":412,""grid_col"":5,""grid_row"":4},{""step"":169,""t_ms"":22193,""event"":""pointermove"",""image"":""fish_1.jpg"",""image_index"":7,""focal_index"":7,""all_images_shown"":false,""x"":534,""y"":399,""grid_col"":5,""grid_row"":4},{""step"":170,""t_ms"":22201,""event"":""pointermove"",""image"":""fish_1.jpg"",""image_index"":7,""focal_index"":7,""all_images_shown"":false,""x"":535,""y"":387,""grid_col"":5,""grid_row"":4},{""step"":171,""t_ms"":22218,""event"":""pointermove"",""image"":""fish_1.jpg"",""image_index"":7,""focal_index"":7,""all_images_shown"":false,""x"":535,""y"":378,""grid_col"":5,""grid_row"":4},{""step"":172,""t_ms"":22226,""event"":""pointermove"",""image"":""fish_1.jpg"",""image_index"":7,""focal_index"":7,""all_images_shown"":false,""x"":535,""y"":371,""grid_col"":5,""grid_row"":4},{""step"":173,""t_ms"":22243,""event"":""pointermove"",""image"":""fish_1.jpg"",""image_index"":7,""focal_index"":7,""all_images_shown"":false,""x"":536,""y"":362,""grid_col"":5,""grid_row"":3},{""step"":174,""t_ms"":22268,""event"":""pointermove"",""image"":""fish_1.jpg"",""image_index"":7,""focal_index"":7,""all_images_shown"":false,""x"":537,""y"":356,""grid_col"":5,""grid_row"":3},{""step"":175,""t_ms"":22318,""event"":""pointermove"",""image"":""fish_1.jpg"",""image_index"":7,""focal_index"":7,""all_images_shown"":false,""x"":540,""y"":354,""grid_col"":5,""grid_row"":3},{""step"":176,""t_ms"":22376,""event"":""pointermove"",""image"":""fish_1.jpg"",""image_index"":7,""focal_index"":7,""all_images_shown"":false,""x"":545,""y"":359,""grid_col"":5,""grid_row"":3},{""step"":177,""t_ms"":22393,""event"":""pointermove"",""image"":""fish_1.jpg"",""image_index"":7,""focal_index"":7,""all_images_shown"":false,""x"":545,""y"":370,""grid_col"":5,""grid_row"":4},{""step"":178,""t_ms"":22401,""event"":""pointermove"",""image"":""fish_1.jpg"",""image_index"":7,""focal_index"":7,""all_images_shown"":false,""x"":542,""y"":385,""grid_col"":5,""grid_row"":4},{""step"":179,""t_ms"":22409,""event"":""pointermove"",""image"":""fish_1.jpg"",""image_index"":7,""focal_index"":7,""all_images_shown"":false,""x"":536,""y"":394,""grid_col"":5,""grid_row"":4},{""step"":180,""t_ms"":22418,""event"":""pointermove"",""image"":""fish_1.jpg"",""image_index"":7,""focal_index"":7,""all_images_shown"":false,""x"":531,""y"":402,""grid_col"":5,""grid_row"":4},{""step"":181,""t_ms"":22426,""event"":""pointermove"",""image"":""fish_1.jpg"",""image_index"":7,""focal_index"":7,""all_images_shown"":false,""x"":521,""y"":412,""grid_col"":5,""grid_row"":4},{""step"":182,""t_ms"":22434,""event"":""pointermove"",""image"":""fish_1.jpg"",""image_index"":7,""focal_index"":7,""all_images_shown"":false,""x"":502,""y"":426,""grid_col"":5,""grid_row"":4},{""step"":183,""t_ms"":22443,""event"":""pointermove"",""image"":""fish_1.jpg"",""image_index"":7,""focal_index"":7,""all_images_shown"":false,""x"":487,""y"":434,""grid_col"":5,""grid_row"":4},{""step"":184,""t_ms"":22876,""event"":""pointermove"",""image"":""fish_1.jpg"",""image_index"":7,""focal_index"":7,""all_images_shown"":false,""x"":476,""y"":460,""grid_col"":4,""grid_row"":4},{""step"":185,""t_ms"":22884,""event"":""pointermove"",""image"":""fish_1.jpg"",""image_index"":7,""focal_index"":7,""all_images_shown"":false,""x"":518,""y"":459,""grid_col"":5,""grid_row"":4},{""step"":186,""t_ms"":22893,""event"":""pointermove"",""image"":""fish_1.jpg"",""image_index"":7,""focal_index"":7,""all_images_shown"":false,""x"":554,""y"":459,""grid_col"":5,""grid_row"":4},{""step"":187,""t_ms"":22901,""event"":""pointermove"",""image"":""fish_1.jpg"",""image_index"":7,""focal_index"":7,""all_images_shown"":false,""x"":570,""y"":459,""grid_col"":5,""grid_row"":4},{""step"":188,""t_ms"":22909,""event"":""pointermove"",""image"":""fish_1.jpg"",""image_index"":7,""focal_index"":7,""all_images_shown"":false,""x"":597,""y"":459,""grid_col"":6,""grid_row"":4},{""step"":189,""t_ms"":22918,""event"":""pointermove"",""image"":""fish_1.jpg"",""image_index"":7,""focal_index"":7,""all_images_shown"":false,""x"":618,""y"":459,""grid_col"":6,""grid_row"":4},{""step"":190,""t_ms"":22925,""event"":""pointermove"",""image"":""fish_1.jpg"",""image_index"":7,""focal_index"":7,""all_images_shown"":false,""x"":637,""y"":464,""grid_col"":6,""grid_row"":4},{""step"":191,""t_ms"":22934,""event"":""pointermove"",""image"":""fish_1.jpg"",""image_index"":7,""focal_index"":7,""all_images_shown"":false,""x"":651,""y"":469,""grid_col"":6,""grid_row"":5},{""step"":192,""t_ms"":22943,""event"":""pointermove"",""image"":""fish_1.jpg"",""image_index"":7,""focal_index"":7,""all_images_shown"":false,""x"":655,""y"":473,""grid_col"":6,""grid_row"":5},{""step"":193,""t_ms"":22951,""event"":""pointermove"",""image"":""fish_1.jpg"",""image_index"":7,""focal_index"":7,""all_images_shown"":false,""x"":664,""y"":479,""grid_col"":6,""grid_row"":5},{""step"":194,""t_ms"":22959,""event"":""pointermove"",""image"":""fish_1.jpg"",""image_index"":7,""focal_index"":7,""all_images_shown"":false,""x"":671,""y"":485,""grid_col"":6,""grid_row"":5},{""step"":195,""t_ms"":22968,""event"":""pointermove"",""image"":""fish_1.jpg"",""image_index"":7,""focal_index"":7,""all_images_shown"":false,""x"":678,""y"":496,""grid_col"":6,""grid_row"":5},{""step"":196,""t_ms"":22976,""event"":""pointermove"",""image"":""fish_1.jpg"",""image_index"":7,""focal_index"":7,""all_images_shown"":false,""x"":680,""y"":501,""grid_col"":6,""grid_row"":5},{""step"":197,""t_ms"":22993,""event"":""pointermove"",""image"":""fish_1.jpg"",""image_index"":7,""focal_index"":7,""all_images_shown"":false,""x"":681,""y"":513,""grid_col"":6,""grid_row"":5},{""step"":198,""t_ms"":23001,""event"":""pointermove"",""image"":""fish_1.jpg"",""image_index"":7,""focal_index"":7,""all_images_shown"":false,""x"":681,""y"":522,""grid_col"":6,""grid_row"":5},{""step"":199,""t_ms"":23009,""event"":""pointermove"",""image"":""fish_1.jpg"",""image_index"":7,""focal_index"":7,""all_images_shown"":false,""x"":681,""y"":529,""grid_col"":6,""grid_row"":5},{""step"":200,""t_ms"":23018,""event"":""pointermove"",""image"":""fish_1.jpg"",""image_index"":7,""focal_index"":7,""all_images_shown"":false,""x"":677,""y"":538,""grid_col"":6,""grid_row"":5},{""step"":201,""t_ms"":23026,""event"":""pointermove"",""image"":""fish_1.jpg"",""image_index"":7,""focal_index"":7,""all_images_shown"":false,""x"":668,""y"":555,""grid_col"":6,""grid_row"":5},{""step"":202,""t_ms"":23034,""event"":""pointermove"",""image"":""fish_1.jpg"",""image_index"":7,""focal_index"":7,""all_images_shown"":false,""x"":664,""y"":562,""grid_col"":6,""grid_row"":5},{""step"":203,""t_ms"":23043,""event"":""pointermove"",""image"":""fish_1.jpg"",""image_index"":7,""focal_index"":7,""all_images_shown"":false,""x"":657,""y"":575,""grid_col"":6,""grid_row"":6},{""step"":204,""t_ms"":23051,""event"":""pointermove"",""image"":""fish_1.jpg"",""image_index"":7,""focal_index"":7,""all_images_shown"":false,""x"":648,""y"":589,""grid_col"":6,""grid_row"":6},{""step"":205,""t_ms"":23059,""event"":""pointermove"",""image"":""fish_1.jpg"",""image_index"":7,""focal_index"":7,""all_images_shown"":false,""x"":639,""y"":601,""grid_col"":6,""grid_row"":6},{""step"":206,""t_ms"":23068,""event"":""pointermove"",""image"":""fish_1.jpg"",""image_index"":7,""focal_index"":7,""all_images_shown"":false,""x"":629,""y"":613,""grid_col"":6,""grid_row"":6},{""step"":207,""t_ms"":23076,""event"":""pointermove"",""image"":""fish_1.jpg"",""image_index"":7,""focal_index"":7,""all_images_shown"":false,""x"":619,""y"":616,""grid_col"":6,""grid_row"":6},{""step"":208,""t_ms"":23084,""event"":""pointermove"",""image"":""fish_1.jpg"",""image_index"":7,""focal_index"":7,""all_images_shown"":false,""x"":608,""y"":616,""grid_col"":6,""grid_row"":6},{""step"":209,""t_ms"":23093,""event"":""pointermove"",""image"":""fish_1.jpg"",""image_index"":7,""focal_index"":7,""all_images_shown"":false,""x"":597,""y"":616,""grid_col"":6,""grid_row"":6},{""step"":210,""t_ms"":23101,""event"":""pointermove"",""image"":""fish_1.jpg"",""image_index"":7,""focal_index"":7,""all_images_shown"":false,""x"":585,""y"":616,""grid_col"":6,""grid_row"":6},{""step"":211,""t_ms"":23870,""event"":""pointermove"",""image"":""fish_1.jpg"",""image_index"":7,""focal_index"":7,""all_images_shown"":false,""x"":641,""y"":616,""grid_col"":6,""grid_row"":6},{""step"":212,""t_ms"":25459,""event"":""pointermove"",""image"":""fish_1.jpg"",""image_index"":7,""focal_index"":7,""all_images_shown"":false,""x"":689,""y"":558,""grid_col"":7,""grid_row"":5},{""step"":213,""t_ms"":25468,""event"":""pointermove"",""image"":""fish_1.jpg"",""image_index"":7,""focal_index"":7,""all_images_shown"":false,""x"":687,""y"":577,""grid_col"":7,""grid_row"":6},{""step"":214,""t_ms"":25476,""event"":""pointermove"",""image"":""fish_1.jpg"",""image_index"":7,""focal_index"":7,""all_images_shown"":false,""x"":683,""y"":609,""grid_col"":6,""grid_row"":6},{""step"":215,""t_ms"":25484,""event"":""pointermove"",""image"":""fish_1.jpg"",""image_index"":7,""focal_index"":7,""all_images_shown"":false,""x"":678,""y"":616,""grid_col"":6,""grid_row"":6},{""step"":216,""t_ms"":25501,""event"":""pointermove"",""image"":""fish_1.jpg"",""image_index"":7,""focal_index"":7,""all_images_shown"":false,""x"":672,""y"":616,""grid_col"":6,""grid_row"":6},{""step"":217,""t_ms"":25518,""event"":""pointermove"",""image"":""fish_1.jpg"",""image_index"":7,""focal_index"":7,""all_images_shown"":false,""x"":668,""y"":616,""grid_col"":6,""grid_row"":6},{""step"":218,""t_ms"":25707,""event"":""pointermove"",""image"":""fish_1.jpg"",""image_index"":7,""focal_index"":7,""all_images_shown"":false,""x"":670,""y"":608,""grid_col"":6,""grid_row"":6},{""step"":219,""t_ms"":25715,""event"":""pointermove"",""image"":""fish_1.jpg"",""image_index"":7,""focal_index"":7,""all_images_shown"":false,""x"":673,""y"":601,""grid_col"":6,""grid_row"":6},{""step"":220,""t_ms"":25722,""event"":""pointermove"",""image"":""fish_1.jpg"",""image_index"":7,""focal_index"":7,""all_images_shown"":false,""x"":676,""y"":594,""grid_col"":6,""grid_row"":6},{""step"":221,""t_ms"":25731,""event"":""pointermove"",""image"":""fish_1.jpg"",""image_index"":7,""focal_index"":7,""all_images_shown"":false,""x"":680,""y"":586,""grid_col"":6,""grid_row"":6},{""step"":222,""t_ms"":25738,""event"":""pointermove"",""image"":""fish_1.jpg"",""image_index"":7,""focal_index"":7,""all_images_shown"":false,""x"":687,""y"":577,""grid_col"":7,""grid_row"":6},{""step"":223,""t_ms"":25747,""event"":""pointermove"",""image"":""fish_1.jpg"",""image_index"":7,""focal_index"":7,""all_images_shown"":false,""x"":693,""y"":567,""grid_col"":7,""grid_row"":5},{""step"":224,""t_ms"":25755,""event"":""pointermove"",""image"":""fish_1.jpg"",""image_index"":7,""focal_index"":7,""all_images_shown"":false,""x"":699,""y"":558,""grid_col"":7,""grid_row"":5},{""step"":225,""t_ms"":25763,""event"":""pointermove"",""image"":""fish_1.jpg"",""image_index"":7,""focal_index"":7,""all_images_shown"":false,""x"":702,""y"":554,""grid_col"":7,""grid_row"":5},{""step"":226,""t_ms"":25772,""event"":""pointermove"",""image"":""fish_1.jpg"",""image_index"":7,""focal_index"":7,""all_images_shown"":false,""x"":708,""y"":545,""grid_col"":7,""grid_row"":5},{""step"":227,""t_ms"":25780,""event"":""pointermove"",""image"":""fish_1.jpg"",""image_index"":7,""focal_index"":7,""all_images_shown"":false,""x"":713,""y"":539,""grid_col"":7,""grid_row"":5},{""step"":228,""t_ms"":25797,""event"":""pointermove"",""image"":""fish_1.jpg"",""image_index"":7,""focal_index"":7,""all_images_shown"":false,""x"":720,""y"":533,""grid_col"":7,""grid_row"":5},{""step"":229,""t_ms"":25805,""event"":""pointermove"",""image"":""fish_1.jpg"",""image_index"":7,""focal_index"":7,""all_images_shown"":false,""x"":723,""y"":530,""grid_col"":7,""grid_row"":5},{""step"":230,""t_ms"":25813,""event"":""pointermove"",""image"":""fish_1.jpg"",""image_index"":7,""focal_index"":7,""all_images_shown"":false,""x"":729,""y"":525,""grid_col"":7,""grid_row"":5},{""step"":231,""t_ms"":25822,""event"":""pointermove"",""image"":""fish_1.jpg"",""image_index"":7,""focal_index"":7,""all_images_shown"":false,""x"":731,""y"":524,""grid_col"":7,""grid_row"":5},{""step"":232,""t_ms"":25830,""event"":""pointermove"",""image"":""fish_1.jpg"",""image_index"":7,""focal_index"":7,""all_images_shown"":false,""x"":735,""y"":521,""grid_col"":7,""grid_row"":5},{""step"":233,""t_ms"":25847,""event"":""pointermove"",""image"":""fish_1.jpg"",""image_index"":7,""focal_index"":7,""all_images_shown"":false,""x"":743,""y"":513,""grid_col"":7,""grid_row"":5},{""step"":234,""t_ms"":25863,""event"":""pointermove"",""image"":""fish_1.jpg"",""image_index"":7,""focal_index"":7,""all_images_shown"":false,""x"":749,""y"":504,""grid_col"":7,""grid_row"":5},{""step"":235,""t_ms"":25872,""event"":""pointermove"",""image"":""fish_1.jpg"",""image_index"":7,""focal_index"":7,""all_images_shown"":false,""x"":752,""y"":500,""grid_col"":7,""grid_row"":5},{""step"":236,""t_ms"":25897,""event"":""pointermove"",""image"":""fish_1.jpg"",""image_index"":7,""focal_index"":7,""all_images_shown"":false,""x"":756,""y"":491,""grid_col"":7,""grid_row"":5},{""step"":237,""t_ms"":25905,""event"":""pointermove"",""image"":""fish_1.jpg"",""image_index"":7,""focal_index"":7,""all_images_shown"":false,""x"":757,""y"":489,""grid_col"":7,""grid_row"":5},{""step"":238,""t_ms"":25938,""event"":""pointermove"",""image"":""fish_1.jpg"",""image_index"":7,""focal_index"":7,""all_images_shown"":false,""x"":758,""y"":484,""grid_col"":7,""grid_row"":5},{""step"":239,""t_ms"":25980,""event"":""pointermove"",""image"":""fish_1.jpg"",""image_index"":7,""focal_index"":7,""all_images_shown"":false,""x"":759,""y"":474,""grid_col"":7,""grid_row"":5},{""step"":240,""t_ms"":26066,""event"":""pointermove"",""image"":""fish_1.jpg"",""image_index"":7,""focal_index"":7,""all_images_shown"":false,""x"":757,""y"":468,""grid_col"":7,""grid_row"":4},{""step"":241,""t_ms"":26074,""event"":""pointermove"",""image"":""fish_1.jpg"",""image_index"":7,""focal_index"":7,""all_images_shown"":false,""x"":756,""y"":468,""grid_col"":7,""grid_row"":4},{""step"":242,""t_ms"":26098,""event"":""pointermove"",""image"":""fish_1.jpg"",""image_index"":7,""focal_index"":7,""all_images_shown"":false,""x"":744,""y"":468,""grid_col"":7,""grid_row"":4},{""step"":243,""t_ms"":26106,""event"":""pointermove"",""image"":""fish_1.jpg"",""image_index"":7,""focal_index"":7,""all_images_shown"":false,""x"":738,""y"":468,""grid_col"":7,""grid_row"":4},{""step"":244,""t_ms"":26114,""event"":""pointermove"",""image"":""fish_1.jpg"",""image_index"":7,""focal_index"":7,""all_images_shown"":false,""x"":732,""y"":470,""grid_col"":7,""grid_row"":5},{""step"":245,""t_ms"":26122,""event"":""pointermove"",""image"":""fish_1.jpg"",""image_index"":7,""focal_index"":7,""all_images_shown"":false,""x"":721,""y"":472,""grid_col"":7,""grid_row"":5},{""step"":246,""t_ms"":26130,""event"":""pointermove"",""image"":""fish_1.jpg"",""image_index"":7,""focal_index"":7,""all_images_shown"":false,""x"":713,""y"":473,""grid_col"":7,""grid_row"":5},{""step"":247,""t_ms"":26138,""event"":""pointermove"",""image"":""fish_1.jpg"",""image_index"":7,""focal_index"":7,""all_images_shown"":false,""x"":702,""y"":474,""grid_col"":7,""grid_row"":5},{""step"":248,""t_ms"":26147,""event"":""pointermove"",""image"":""fish_1.jpg"",""image_index"":7,""focal_index"":7,""all_images_shown"":false,""x"":691,""y"":475,""grid_col"":7,""grid_row"":5},{""step"":249,""t_ms"":26155,""event"":""pointermove"",""image"":""fish_1.jpg"",""image_index"":7,""focal_index"":7,""all_images_shown"":false,""x"":678,""y"":476,""grid_col"":6,""grid_row"":5},{""step"":250,""t_ms"":26705,""event"":""pointermove"",""image"":""fish_1.jpg"",""image_index"":7,""focal_index"":7,""all_images_shown"":false,""x"":662,""y"":477,""grid_col"":6,""grid_row"":5},{""step"":251,""t_ms"":26714,""event"":""pointermove"",""image"":""fish_1.jpg"",""image_index"":7,""focal_index"":7,""all_images_shown"":false,""x"":689,""y"":477,""grid_col"":7,""grid_row"":5},{""step"":252,""t_ms"":26722,""event"":""pointermove"",""image"":""fish_1.jpg"",""image_index"":7,""focal_index"":7,""all_images_shown"":false,""x"":712,""y"":480,""grid_col"":7,""grid_row"":5},{""step"":253,""t_ms"":26730,""event"":""pointermove"",""image"":""fish_1.jpg"",""image_index"":7,""focal_index"":7,""all_images_shown"":false,""x"":730,""y"":483,""grid_col"":7,""grid_row"":5},{""step"":254,""t_ms"":26739,""event"":""pointermove"",""image"":""fish_1.jpg"",""image_index"":7,""focal_index"":7,""all_images_shown"":false,""x"":737,""y"":484,""grid_col"":7,""grid_row"":5},{""step"":255,""t_ms"":26748,""event"":""pointermove"",""image"":""fish_1.jpg"",""image_index"":7,""focal_index"":7,""all_images_shown"":false,""x"":750,""y"":486,""grid_col"":7,""grid_row"":5},{""step"":256,""t_ms"":26755,""event"":""pointermove"",""image"":""fish_1.jpg"",""image_index"":7,""focal_index"":7,""all_images_shown"":false,""x"":761,""y"":488,""grid_col"":7,""grid_row"":5},{""step"":257,""t_ms"":26764,""event"":""pointermove"",""image"":""fish_1.jpg"",""image_index"":7,""focal_index"":7,""all_images_shown"":false,""x"":769,""y"":490,""grid_col"":7,""grid_row"":5},{""step"":258,""t_ms"":26780,""event"":""pointermove"",""image"":""fish_1.jpg"",""image_index"":7,""focal_index"":7,""all_images_shown"":false,""x"":776,""y"":493,""grid_col"":7,""grid_row"":5},{""step"":259,""t_ms"":26797,""event"":""pointermove"",""image"":""fish_1.jpg"",""image_index"":7,""focal_index"":7,""all_images_shown"":false,""x"":781,""y"":494,""grid_col"":7,""grid_row"":5},{""step"":260,""t_ms"":26977,""event"":""pointermove"",""image"":""fish_1.jpg"",""image_index"":7,""focal_index"":7,""all_images_shown"":false,""x"":778,""y"":498,""grid_col"":7,""grid_row"":5},{""step"":261,""t_ms"":27000,""event"":""pointermove"",""image"":""fish_1.jpg"",""image_index"":7,""focal_index"":7,""all_images_shown"":false,""x"":771,""y"":501,""grid_col"":7,""grid_row"":5},{""step"":262,""t_ms"":27032,""event"":""pointermove"",""image"":""fish_1.jpg"",""image_index"":7,""focal_index"":7,""all_images_shown"":false,""x"":762,""y"":504,""grid_col"":7,""grid_row"":5},{""step"":263,""t_ms"":27056,""event"":""pointermove"",""image"":""fish_1.jpg"",""image_index"":7,""focal_index"":7,""all_images_shown"":false,""x"":756,""y"":506,""grid_col"":7,""grid_row"":5},{""step"":264,""t_ms"":27080,""event"":""pointermove"",""image"":""fish_1.jpg"",""image_index"":7,""focal_index"":7,""all_images_shown"":false,""x"":748,""y"":507,""grid_col"":7,""grid_row"":5},{""step"":265,""t_ms"":27105,""event"":""pointermove"",""image"":""fish_1.jpg"",""image_index"":7,""focal_index"":7,""all_images_shown"":false,""x"":740,""y"":507,""grid_col"":7,""grid_row"":5},{""step"":266,""t_ms"":27147,""event"":""pointermove"",""image"":""fish_1.jpg"",""image_index"":7,""focal_index"":7,""all_images_shown"":false,""x"":732,""y"":507,""grid_col"":7,""grid_row"":5},{""step"":267,""t_ms"":27280,""event"":""pointerdown"",""image"":""fish_1.jpg"",""image_index"":7,""focal_index"":7,""all_images_shown"":false,""x"":730,""y"":507,""grid_col"":7,""grid_row"":5},{""step"":268,""t_ms"":27351,""event"":""pointerup"",""image"":""fish_1.jpg"",""image_index"":7,""focal_index"":7,""all_images_shown"":false,""x"":736,""y"":520,""grid_col"":7,""grid_row"":5,""placed"":true},{""step"":269,""t_ms"":27351,""event"":""introduce_next_image"",""image"":""squirrel_1.jpg"",""image_index"":8,""focal_index"":8,""all_images_shown"":false,""x"":580,""y"":364,""grid_col"":6,""grid_row"":4},{""step"":270,""t_ms"":27881,""event"":""pointerdown"",""image"":""fish_1.jpg"",""image_index"":7,""focal_index"":8,""all_images_shown"":false,""x"":736,""y"":520,""grid_col"":7,""grid_row"":5},{""step"":271,""t_ms"":27971,""event"":""pointermove"",""image"":""fish_1.jpg"",""image_index"":7,""focal_index"":8,""all_images_shown"":false,""x"":736,""y"":520,""grid_col"":7,""grid_row"":5},{""step"":272,""t_ms"":27989,""event"":""pointermove"",""image"":""fish_1.jpg"",""image_index"":7,""focal_index"":8,""all_images_shown"":false,""x"":730,""y"":520,""grid_col"":7,""grid_row"":5},{""step"":273,""t_ms"":28005,""event"":""pointermove"",""image"":""fish_1.jpg"",""image_index"":7,""focal_index"":8,""all_images_shown"":false,""x"":719,""y"":520,""grid_col"":7,""grid_row"":5},{""step"":274,""t_ms"":28014,""event"":""pointermove"",""image"":""fish_1.jpg"",""image_index"":7,""focal_index"":8,""all_images_shown"":false,""x"":713,""y"":520,""grid_col"":7,""grid_row"":5},{""step"":275,""t_ms"":28022,""event"":""pointermove"",""image"":""fish_1.jpg"",""image_index"":7,""focal_index"":8,""all_images_shown"":false,""x"":705,""y"":520,""grid_col"":7,""grid_row"":5},{""step"":276,""t_ms"":28030,""event"":""pointermove"",""image"":""fish_1.jpg"",""image_index"":7,""focal_index"":8,""all_images_shown"":false,""x"":696,""y"":520,""grid_col"":7,""grid_row"":5},{""step"":277,""t_ms"":28039,""event"":""pointermove"",""image"":""fish_1.jpg"",""image_index"":7,""focal_index"":8,""all_images_shown"":false,""x"":687,""y"":520,""grid_col"":7,""grid_row"":5},{""step"":278,""t_ms"":28047,""event"":""pointermove"",""image"":""fish_1.jpg"",""image_index"":7,""focal_index"":8,""all_images_shown"":false,""x"":677,""y"":520,""grid_col"":6,""grid_row"":5},{""step"":279,""t_ms"":28055,""event"":""pointermove"",""image"":""fish_1.jpg"",""image_index"":7,""focal_index"":8,""all_images_shown"":false,""x"":667,""y"":520,""grid_col"":6,""grid_row"":5},{""step"":280,""t_ms"":28064,""event"":""pointermove"",""image"":""fish_1.jpg"",""image_index"":7,""focal_index"":8,""all_images_shown"":false,""x"":655,""y"":520,""grid_col"":6,""grid_row"":5},{""step"":281,""t_ms"":28072,""event"":""pointermove"",""image"":""fish_1.jpg"",""image_index"":7,""focal_index"":8,""all_images_shown"":false,""x"":644,""y"":520,""grid_col"":6,""grid_row"":5},{""step"":282,""t_ms"":28080,""event"":""pointermove"",""image"":""fish_1.jpg"",""image_index"":7,""focal_index"":8,""all_images_shown"":false,""x"":633,""y"":520,""grid_col"":6,""grid_row"":5},{""step"":283,""t_ms"":28089,""event"":""pointermove"",""image"":""fish_1.jpg"",""image_index"":7,""focal_index"":8,""all_images_shown"":false,""x"":611,""y"":520,""grid_col"":6,""grid_row"":5},{""step"":284,""t_ms"":28097,""event"":""pointermove"",""image"":""fish_1.jpg"",""image_index"":7,""focal_index"":8,""all_images_shown"":false,""x"":602,""y"":520,""grid_col"":6,""grid_row"":5},{""step"":285,""t_ms"":28105,""event"":""pointermove"",""image"":""fish_1.jpg"",""image_index"":7,""focal_index"":8,""all_images_shown"":false,""x"":590,""y"":520,""grid_col"":6,""grid_row"":5},{""step"":286,""t_ms"":28114,""event"":""pointermove"",""image"":""fish_1.jpg"",""image_index"":7,""focal_index"":8,""all_images_shown"":false,""x"":576,""y"":520,""grid_col"":5,""grid_row"":5},{""step"":287,""t_ms"":28122,""event"":""pointermove"",""image"":""fish_1.jpg"",""image_index"":7,""focal_index"":8,""all_images_shown"":false,""x"":563,""y"":520,""grid_col"":5,""grid_row"":5},{""step"":288,""t_ms"":28130,""event"":""pointermove"",""image"":""fish_1.jpg"",""image_index"":7,""focal_index"":8,""all_images_shown"":false,""x"":547,""y"":520,""grid_col"":5,""grid_row"":5},{""step"":289,""t_ms"":28139,""event"":""pointermove"",""image"":""fish_1.jpg"",""image_index"":7,""focal_index"":8,""all_images_shown"":false,""x"":526,""y"":520,""grid_col"":5,""grid_row"":5},{""step"":290,""t_ms"":28147,""event"":""pointermove"",""image"":""fish_1.jpg"",""image_index"":7,""focal_index"":8,""all_images_shown"":false,""x"":507,""y"":520,""grid_col"":5,""grid_row"":5},{""step"":291,""t_ms"":28155,""event"":""pointermove"",""image"":""fish_1.jpg"",""image_index"":7,""focal_index"":8,""all_images_shown"":false,""x"":493,""y"":520,""grid_col"":5,""grid_row"":5},{""step"":292,""t_ms"":28163,""event"":""pointermove"",""image"":""fish_1.jpg"",""image_index"":7,""focal_index"":8,""all_images_shown"":false,""x"":476,""y"":520,""grid_col"":4,""grid_row"":5},{""step"":293,""t_ms"":28172,""event"":""pointermove"",""image"":""fish_1.jpg"",""image_index"":7,""focal_index"":8,""all_images_shown"":false,""x"":459,""y"":520,""grid_col"":4,""grid_row"":5},{""step"":294,""t_ms"":28180,""event"":""pointermove"",""image"":""fish_1.jpg"",""image_index"":7,""focal_index"":8,""all_images_shown"":false,""x"":441,""y"":518,""grid_col"":4,""grid_row"":5},{""step"":295,""t_ms"":28189,""event"":""pointermove"",""image"":""fish_1.jpg"",""image_index"":7,""focal_index"":8,""all_images_shown"":false,""x"":428,""y"":517,""grid_col"":4,""grid_row"":5},{""step"":296,""t_ms"":28197,""event"":""pointermove"",""image"":""fish_1.jpg"",""image_index"":7,""focal_index"":8,""all_images_shown"":false,""x"":416,""y"":517,""grid_col"":4,""grid_row"":5},{""step"":297,""t_ms"":28205,""event"":""pointermove"",""image"":""fish_1.jpg"",""image_index"":7,""focal_index"":8,""all_images_shown"":false,""x"":402,""y"":516,""grid_col"":4,""grid_row"":5},{""step"":298,""t_ms"":28213,""event"":""pointermove"",""image"":""fish_1.jpg"",""image_index"":7,""focal_index"":8,""all_images_shown"":false,""x"":388,""y"":515,""grid_col"":4,""grid_row"":5},{""step"":299,""t_ms"":28222,""event"":""pointermove"",""image"":""fish_1.jpg"",""image_index"":7,""focal_index"":8,""all_images_shown"":false,""x"":374,""y"":514,""grid_col"":4,""grid_row"":5},{""step"":300,""t_ms"":28230,""event"":""pointermove"",""image"":""fish_1.jpg"",""image_index"":7,""focal_index"":8,""all_images_shown"":false,""x"":361,""y"":513,""grid_col"":3,""grid_row"":5},{""step"":301,""t_ms"":28239,""event"":""pointermove"",""image"":""fish_1.jpg"",""image_index"":7,""focal_index"":8,""all_images_shown"":false,""x"":349,""y"":512,""grid_col"":3,""grid_row"":5},{""step"":302,""t_ms"":28247,""event"":""pointermove"",""image"":""fish_1.jpg"",""image_index"":7,""focal_index"":8,""all_images_shown"":false,""x"":336,""y"":511,""grid_col"":3,""grid_row"":5},{""step"":303,""t_ms"":28255,""event"":""pointermove"",""image"":""fish_1.jpg"",""image_index"":7,""focal_index"":8,""all_images_shown"":false,""x"":327,""y"":509,""grid_col"":3,""grid_row"":5},{""step"":304,""t_ms"":28264,""event"":""pointermove"",""image"":""fish_1.jpg"",""image_index"":7,""focal_index"":8,""all_images_shown"":false,""x"":315,""y"":508,""grid_col"":3,""grid_row"":5},{""step"":305,""t_ms"":28272,""event"":""pointermove"",""image"":""fish_1.jpg"",""image_index"":7,""focal_index"":8,""all_images_shown"":false,""x"":304,""y"":507,""grid_col"":3,""grid_row"":5},{""step"":306,""t_ms"":28280,""event"":""pointermove"",""image"":""fish_1.jpg"",""image_index"":7,""focal_index"":8,""all_images_shown"":false,""x"":297,""y"":506,""grid_col"":3,""grid_row"":5},{""step"":307,""t_ms"":28288,""event"":""pointermove"",""image"":""fish_1.jpg"",""image_index"":7,""focal_index"":8,""all_images_shown"":false,""x"":284,""y"":505,""grid_col"":3,""grid_row"":5},{""step"":308,""t_ms"":28297,""event"":""pointermove"",""image"":""fish_1.jpg"",""image_index"":7,""focal_index"":8,""all_images_shown"":false,""x"":280,""y"":504,""grid_col"":3,""grid_row"":5},{""step"":309,""t_ms"":28308,""event"":""pointermove"",""image"":""fish_1.jpg"",""image_index"":7,""focal_index"":8,""all_images_shown"":false,""x"":274,""y"":504,""grid_col"":3,""grid_row"":5},{""step"":310,""t_ms"":28322,""event"":""pointermove"",""image"":""fish_1.jpg"",""image_index"":7,""focal_index"":8,""all_images_shown"":false,""x"":266,""y"":504,""grid_col"":2,""grid_row"":5},{""step"":311,""t_ms"":28339,""event"":""pointermove"",""image"":""fish_1.jpg"",""image_index"":7,""focal_index"":8,""all_images_shown"":false,""x"":259,""y"":504,""grid_col"":2,""grid_row"":5},{""step"":312,""t_ms"":28364,""event"":""pointermove"",""image"":""fish_1.jpg"",""image_index"":7,""focal_index"":8,""all_images_shown"":false,""x"":250,""y"":504,""grid_col"":2,""grid_row"":5},{""step"":313,""t_ms"":28397,""event"":""pointermove"",""image"":""fish_1.jpg"",""image_index"":7,""focal_index"":8,""all_images_shown"":false,""x"":243,""y"":504,""grid_col"":2,""grid_row"":5},{""step"":314,""t_ms"":28439,""event"":""pointermove"",""image"":""fish_1.jpg"",""image_index"":7,""focal_index"":8,""all_images_shown"":false,""x"":234,""y"":508,""grid_col"":2,""grid_row"":5},{""step"":315,""t_ms"":28447,""event"":""pointermove"",""image"":""fish_1.jpg"",""image_index"":7,""focal_index"":8,""all_images_shown"":false,""x"":232,""y"":509,""grid_col"":2,""grid_row"":5},{""step"":316,""t_ms"":28472,""event"":""pointermove"",""image"":""fish_1.jpg"",""image_index"":7,""focal_index"":8,""all_images_shown"":false,""x"":226,""y"":512,""grid_col"":2,""grid_row"":5},{""step"":317,""t_ms"":28647,""event"":""pointerup"",""image"":""fish_1.jpg"",""image_index"":7,""focal_index"":8,""all_images_shown"":false,""x"":216,""y"":520,""grid_col"":2,""grid_row"":5,""placed"":true},{""step"":318,""t_ms"":29325,""event"":""pointerdown"",""image"":""squirrel_1.jpg"",""image_index"":8,""focal_index"":8,""all_images_shown"":false,""x"":580,""y"":364,""grid_col"":6,""grid_row"":4},{""step"":319,""t_ms"":29408,""event"":""pointermove"",""image"":""squirrel_1.jpg"",""image_index"":8,""focal_index"":8,""all_images_shown"":false,""x"":580,""y"":364,""grid_col"":6,""grid_row"":4},{""step"":320,""t_ms"":29425,""event"":""pointermove"",""image"":""squirrel_1.jpg"",""image_index"":8,""focal_index"":8,""all_images_shown"":false,""x"":580,""y"":373,""grid_col"":6,""grid_row"":4},{""step"":321,""t_ms"":29430,""event"":""pointermove"",""image"":""squirrel_1.jpg"",""image_index"":8,""focal_index"":8,""all_images_shown"":false,""x"":580,""y"":381,""grid_col"":5,""grid_row"":4},{""step"":322,""t_ms"":29439,""event"":""pointermove"",""image"":""squirrel_1.jpg"",""image_index"":8,""focal_index"":8,""all_images_shown"":false,""x"":578,""y"":391,""grid_col"":5,""grid_row"":4},{""step"":323,""t_ms"":29447,""event"":""pointermove"",""image"":""squirrel_1.jpg"",""image_index"":8,""focal_index"":8,""all_images_shown"":false,""x"":574,""y"":407,""grid_col"":5,""grid_row"":4},{""step"":324,""t_ms"":29455,""event"":""pointermove"",""image"":""squirrel_1.jpg"",""image_index"":8,""focal_index"":8,""all_images_shown"":false,""x"":569,""y"":429,""grid_col"":5,""grid_row"":4},{""step"":325,""t_ms"":29464,""event"":""pointermove"",""image"":""squirrel_1.jpg"",""image_index"":8,""focal_index"":8,""all_images_shown"":false,""x"":563,""y"":453,""grid_col"":5,""grid_row"":4},{""step"":326,""t_ms"":29472,""event"":""pointermove"",""image"":""squirrel_1.jpg"",""image_index"":8,""focal_index"":8,""all_images_shown"":false,""x"":558,""y"":471,""grid_col"":5,""grid_row"":5},{""step"":327,""t_ms"":29481,""event"":""pointermove"",""image"":""squirrel_1.jpg"",""image_index"":8,""focal_index"":8,""all_images_shown"":false,""x"":554,""y"":488,""grid_col"":5,""grid_row"":5},{""step"":328,""t_ms"":29489,""event"":""pointermove"",""image"":""squirrel_1.jpg"",""image_index"":8,""focal_index"":8,""all_images_shown"":false,""x"":548,""y"":508,""grid_col"":5,""grid_row"":5},{""step"":329,""t_ms"":29497,""event"":""pointermove"",""image"":""squirrel_1.jpg"",""image_index"":8,""focal_index"":8,""all_images_shown"":false,""x"":545,""y"":520,""grid_col"":5,""grid_row"":5},{""step"":330,""t_ms"":29505,""event"":""pointermove"",""image"":""squirrel_1.jpg"",""image_index"":8,""focal_index"":8,""all_images_shown"":false,""x"":543,""y"":529,""grid_col"":5,""grid_row"":5},{""step"":331,""t_ms"":29513,""event"":""pointermove"",""image"":""squirrel_1.jpg"",""image_index"":8,""focal_index"":8,""all_images_shown"":false,""x"":541,""y"":535,""grid_col"":5,""grid_row"":5},{""step"":332,""t_ms"":29522,""event"":""pointermove"",""image"":""squirrel_1.jpg"",""image_index"":8,""focal_index"":8,""all_images_shown"":false,""x"":540,""y"":539,""grid_col"":5,""grid_row"":5},{""step"":333,""t_ms"":29530,""event"":""pointermove"",""image"":""squirrel_1.jpg"",""image_index"":8,""focal_index"":8,""all_images_shown"":false,""x"":539,""y"":542,""grid_col"":5,""grid_row"":5},{""step"":334,""t_ms"":29555,""event"":""pointermove"",""image"":""squirrel_1.jpg"",""image_index"":8,""focal_index"":8,""all_images_shown"":false,""x"":538,""y"":548,""grid_col"":5,""grid_row"":5},{""step"":335,""t_ms"":29597,""event"":""pointermove"",""image"":""squirrel_1.jpg"",""image_index"":8,""focal_index"":8,""all_images_shown"":false,""x"":536,""y"":557,""grid_col"":5,""grid_row"":5},{""step"":336,""t_ms"":29622,""event"":""pointermove"",""image"":""squirrel_1.jpg"",""image_index"":8,""focal_index"":8,""all_images_shown"":false,""x"":532,""y"":564,""grid_col"":5,""grid_row"":5},{""step"":337,""t_ms"":29664,""event"":""pointermove"",""image"":""squirrel_1.jpg"",""image_index"":8,""focal_index"":8,""all_images_shown"":false,""x"":524,""y"":573,""grid_col"":5,""grid_row"":6},{""step"":338,""t_ms"":29673,""event"":""pointermove"",""image"":""squirrel_1.jpg"",""image_index"":8,""focal_index"":8,""all_images_shown"":false,""x"":521,""y"":577,""grid_col"":5,""grid_row"":6},{""step"":339,""t_ms"":29680,""event"":""pointermove"",""image"":""squirrel_1.jpg"",""image_index"":8,""focal_index"":8,""all_images_shown"":false,""x"":517,""y"":580,""grid_col"":5,""grid_row"":6},{""step"":340,""t_ms"":29689,""event"":""pointermove"",""image"":""squirrel_1.jpg"",""image_index"":8,""focal_index"":8,""all_images_shown"":false,""x"":515,""y"":583,""grid_col"":5,""grid_row"":6},{""step"":341,""t_ms"":29705,""event"":""pointermove"",""image"":""squirrel_1.jpg"",""image_index"":8,""focal_index"":8,""all_images_shown"":false,""x"":508,""y"":590,""grid_col"":5,""grid_row"":6},{""step"":342,""t_ms"":29714,""event"":""pointermove"",""image"":""squirrel_1.jpg"",""image_index"":8,""focal_index"":8,""all_images_shown"":false,""x"":505,""y"":592,""grid_col"":5,""grid_row"":6},{""step"":343,""t_ms"":29730,""event"":""pointermove"",""image"":""squirrel_1.jpg"",""image_index"":8,""focal_index"":8,""all_images_shown"":false,""x"":499,""y"":598,""grid_col"":5,""grid_row"":6},{""step"":344,""t_ms"":29755,""event"":""pointermove"",""image"":""squirrel_1.jpg"",""image_index"":8,""focal_index"":8,""all_images_shown"":false,""x"":491,""y"":604,""grid_col"":5,""grid_row"":6},{""step"":345,""t_ms"":29764,""event"":""pointermove"",""image"":""squirrel_1.jpg"",""image_index"":8,""focal_index"":8,""all_images_shown"":false,""x"":489,""y"":605,""grid_col"":5,""grid_row"":6},{""step"":346,""t_ms"":29941,""event"":""pointermove"",""image"":""squirrel_1.jpg"",""image_index"":8,""focal_index"":8,""all_images_shown"":false,""x"":483,""y"":610,""grid_col"":5,""grid_row"":6},{""step"":347,""t_ms"":29958,""event"":""pointermove"",""image"":""squirrel_1.jpg"",""image_index"":8,""focal_index"":8,""all_images_shown"":false,""x"":477,""y"":612,""grid_col"":5,""grid_row"":6},{""step"":348,""t_ms"":29966,""event"":""pointermove"",""image"":""squirrel_1.jpg"",""image_index"":8,""focal_index"":8,""all_images_shown"":false,""x"":471,""y"":614,""grid_col"":4,""grid_row"":6},{""step"":349,""t_ms"":29974,""event"":""pointermove"",""image"":""squirrel_1.jpg"",""image_index"":8,""focal_index"":8,""all_images_shown"":false,""x"":464,""y"":616,""grid_col"":4,""grid_row"":6},{""step"":350,""t_ms"":29983,""event"":""pointermove"",""image"":""squirrel_1.jpg"",""image_index"":8,""focal_index"":8,""all_images_shown"":fa