"success","timeout","failed_images","failed_audio","failed_video","trial_type","trial_index","plugin_version","time_elapsed","rt","stimulus","response","participant","phase","block","trial","trial_in_block","placements","move_log"
"true","false","[]","[]","[]","preload","0","2.1.0","1166","","","","","","","","","",""
"","","","","","html-button-response","1","2.1.0","2246","1080","
    <div style=""font-size:22px; line-height:1.5; max-width:850px; margin:auto; padding:20px;"">
      <p><b>This task works best in landscape orientation.</b></p>
      <p>If you are using an iPad, please rotate it horizontally before continuing.</p>
    </div>
  ","0","","","","","","",""
"","","","","","html-button-response","2","2.1.0","2645","398","
    <div style=""font-size:22px; line-height:1.5; max-width:850px; margin:auto; padding:20px;"">
      <p>You will first complete <b>1 practice trial</b>.</p>
      <p>After that, you will complete <b>2 blocks</b> of trials, with <b>3 trials per block</b>.</p>
    </div>
  ","0","","","","","","",""
"","","","","","html-button-response","3","2.1.0","4016","1371","
    <div style=""font-size:22px; line-height:1.5; max-width:850px; margin:auto; padding:20px;"">
      <p>One picture will appear at a time.</p>
      <p>Place the current picture into the grid based on how it belongs with the pictures already shown.</p>
      <p>You can still move the earlier pictures if you want to adjust your arrangement.</p>
      <p>As soon as you place the current picture into the grid, the next picture will appear automatically.</p>
    </div>
  ","0","","","","","","",""
"","","","","","html-button-response","4","2.1.0","4642","625","<div style=""font-size:24px; padding:20px;"">Practice Trial</div>","0","","","","","","",""
"","","","","","emotion-grid","5","null","9401","","","","demo","practice","null","0","0","[{""participant"":""demo"",""phase"":""practice"",""block"":null,""trial"":0,""trial_in_block"":0,""image"":""rice.jpg"",""final_img_pos"":""(632, 208)"",""posX"":632,""posY"":208,""grid_col"":6,""grid_row"":2,""introduction_order"":1},{""participant"":""demo"",""phase"":""practice"",""block"":null,""trial"":0,""trial_in_block"":0,""image"":""pizza.jpg"",""final_img_pos"":""(320, 312)"",""posX"":320,""posY"":312,""grid_col"":3,""grid_row"":3,""introduction_order"":2},{""participant"":""demo"",""phase"":""practice"",""block"":null,""trial"":0,""trial_in_block"":0,""image"":""ice_cream.jpg"",""final_img_pos"":""(528, 624)"",""posX"":528,""posY"":624,""grid_col"":5,""grid_row"":6,""introduction_order"":3},{""participant"":""demo"",""phase"":""practice"",""block"":null,""trial"":0,""trial_in_block"":0,""image"":""chocolate.jpg"",""final_img_pos"":""(320, 416)"",""posX"":320,""posY"":416,""grid_col"":3,""grid_row"":4,""introduction_order"":4},{""participant"":""demo"",""phase"":""practice"",""block"":null,""trial"":0,""trial_in_block"":0,""image"":""ham.jpg"",""final_img_pos"":""(320, 520)"",""posX"":320,""posY"":520,""grid_col"":3,""grid_row"":5,""introduction_order"":5},{""participant"":""demo"",""phase"":""practice"",""block"":null,""trial"":0,""trial_in_block"":0,""image"":""salad.jpg"",""final_img_pos"":""(632, 520)"",""posX"":632,""posY"":520,""grid_col"":6,""grid_row"":5,""introduction_order"":6}]","[{""image_name"":""rice.jpg"",""trial"":0,""block"":null,""phase"":""practice"",""grid_col"":6,""grid_row"":2,""posX"":632,""posY"":208,""timestamp"":5917.899999856949},{""image_name"":""pizza.jpg"",""trial"":0,""block"":null,""phase"":""practice"",""grid_col"":3,""grid_row"":3,""posX"":320,""posY"":312,""timestamp"":6509.299999952316},{""image_name"":""ice_cream.jpg"",""trial"":0,""block"":null,""phase"":""practice"",""grid_col"":5,""grid_row"":6,""posX"":528,""posY"":624,""timestamp"":7171.899999856949},{""image_name"":""chocolate.jpg"",""trial"":0,""block"":null,""phase"":""practice"",""grid_col"":3,""grid_row"":4,""posX"":320,""posY"":416,""timestamp"":7764.199999809265},{""image_name"":""ham.jpg"",""trial"":0,""block"":null,""phase"":""practice"",""grid_col"":3,""grid_row"":5,""posX"":320,""posY"":520,""timestamp"":8330.599999904633},{""image_name"":""salad.jpg"",""trial"":0,""block"":null,""phase"":""practice"",""grid_col"":6,""grid_row"":5,""posX"":632,""posY"":520,""timestamp"":8963.899999856949}]"
"","","","","","html-button-response","6","2.1.0","10021","620","
    <div style=""font-size:24px; line-height:1.5; padding:20px;"">
      The practice trial is complete.<br><br>
      You will now begin the main task.
    </div>
  ","0","","","","","","",""
"","","","","","html-button-response","7","2.1.0","10596","575","
      <div style=""font-size:24px; line-height:1.5; padding:20px;"">
        Block 1 of 2<br><br>
        This block has 3 trials.
      </div>
    ","0","","","","","","",""
"","","","","","emotion-grid","8","null","21422","","","","demo","main","1","1","1","[{""participant"":""demo"",""phase"":""main"",""block"":1,""trial"":1,""trial_in_block"":1,""image"":""peacock_1.jpg"",""final_img_pos"":""(632, 104)"",""posX"":632,""posY"":104,""grid_col"":6,""grid_row"":1,""introduction_order"":1},{""participant"":""demo"",""phase"":""main"",""block"":1,""trial"":1,""trial_in_block"":1,""image"":""dolphin_1.jpg"",""final_img_pos"":""(320, 208)"",""posX"":320,""posY"":208,""grid_col"":3,""grid_row"":2,""introduction_order"":2},{""participant"":""demo"",""phase"":""main"",""block"":1,""trial"":1,""trial_in_block"":1,""image"":""pigeon_1.jpg"",""final_img_pos"":""(320, 624)"",""posX"":320,""posY"":624,""grid_col"":3,""grid_row"":6,""introduction_order"":3},{""participant"":""demo"",""phase"":""main"",""block"":1,""trial"":1,""trial_in_block"":1,""image"":""fox_1.jpg"",""final_img_pos"":""(320, 416)"",""posX"":320,""posY"":416,""grid_col"":3,""grid_row"":4,""introduction_order"":4},{""participant"":""demo"",""phase"":""main"",""block"":1,""trial"":1,""trial_in_block"":1,""image"":""lion_1.jpg"",""final_img_pos"":""(216, 312)"",""posX"":216,""posY"":312,""grid_col"":2,""grid_row"":3,""introduction_order"":5},{""participant"":""demo"",""phase"":""main"",""block"":1,""trial"":1,""trial_in_block"":1,""image"":""sheep_1.jpg"",""final_img_pos"":""(528, 624)"",""posX"":528,""posY"":624,""grid_col"":5,""grid_row"":6,""introduction_order"":6},{""participant"":""demo"",""phase"":""main"",""block"":1,""trial"":1,""trial_in_block"":1,""image"":""horse_1.jpg"",""final_img_pos"":""(944, 416)"",""posX"":944,""posY"":416,""grid_col"":9,""grid_row"":4,""introduction_order"":7},{""participant"":""demo"",""phase"":""main"",""block"":1,""trial"":1,""trial_in_block"":1,""image"":""fish_1.jpg"",""final_img_pos"":""(944, 104)"",""posX"":944,""posY"":104,""grid_col"":9,""grid_row"":1,""introduction_order"":8},{""participant"":""demo"",""phase"":""main"",""block"":1,""trial"":1,""trial_in_block"":1,""image"":""squirrel_1.jpg"",""final_img_pos"":""(840, 416)"",""posX"":840,""posY"":416,""grid_col"":8,""grid_row"":4,""introduction_order"":9},{""participant"":""demo"",""phase"":""main"",""block"":1,""trial"":1,""trial_in_block"":1,""image"":""butterfly_1.jpg"",""final_img_pos"":""(736, 208)"",""posX"":736,""posY"":208,""grid_col"":7,""grid_row"":2,""introduction_order"":10},{""participant"":""demo"",""phase"":""main"",""block"":1,""trial"":1,""trial_in_block"":1,""image"":""ladybug_1.jpg"",""final_img_pos"":""(528, 104)"",""posX"":528,""posY"":104,""grid_col"":5,""grid_row"":1,""introduction_order"":11},{""participant"":""demo"",""phase"":""main"",""block"":1,""trial"":1,""trial_in_block"":1,""image"":""wolf_1.jpg"",""final_img_pos"":""(632, 520)"",""posX"":632,""posY"":520,""grid_col"":6,""grid_row"":5,""introduction_order"":12}]","[{""image_name"":""peacock_1.jpg"",""trial"":1,""block"":1,""phase"":""main"",""grid_col"":6,""grid_row"":1,""posX"":632,""posY"":104,""timestamp"":12609.199999809265},{""image_name"":""dolphin_1.jpg"",""trial"":1,""block"":1,""phase"":""main"",""grid_col"":3,""grid_row"":2,""posX"":320,""posY"":208,""timestamp"":13184.699999809265},{""image_name"":""pigeon_1.jpg"",""trial"":1,""block"":1,""phase"":""main"",""grid_col"":3,""grid_row"":6,""posX"":320,""posY"":624,""timestamp"":14281.5},{""image_name"":""fox_1.jpg"",""trial"":1,""block"":1,""phase"":""main"",""grid_col"":3,""grid_row"":4,""posX"":320,""posY"":416,""timestamp"":14830.099999904633},{""image_name"":""lion_1.jpg"",""trial"":1,""block"":1,""phase"":""main"",""grid_col"":2,""grid_row"":3,""posX"":216,""posY"":312,""timestamp"":15334.299999952316},{""image_name"":""sheep_1.jpg"",""trial"":1,""block"":1,""phase"":""main"",""grid_col"":5,""grid_row"":6,""posX"":528,""posY"":624,""timestamp"":15918.099999904633},{""image_name"":""horse_1.jpg"",""trial"":1,""block"":1,""phase"":""main"",""grid_col"":9,""grid_row"":4,""posX"":944,""posY"":416,""timestamp"":16692.299999952316},{""image_name"":""fish_1.jpg"",""trial"":1,""block"":1,""phase"":""main"",""grid_col"":9,""grid_row"":1,""posX"":944,""posY"":104,""timestamp"":17297.299999952316},{""image_name"":""squirrel_1.jpg"",""trial"":1,""block"":1,""phase"":""main"",""grid_col"":8,""grid_row"":4,""posX"":840,""posY"":416,""timestamp"":18384.799999952316},{""image_name"":""butterfly_1.jpg"",""trial"":1,""block"":1,""phase"":""main"",""grid_col"":7,""grid_row"":2,""posX"":736,""posY"":208,""timestamp"":18905.099999904633},{""image_name"":""ladybug_1.jpg"",""trial"":1,""block"":1,""phase"":""main"",""grid_col"":5,""grid_row"":1,""posX"":528,""posY"":104,""timestamp"":19471.799999952316},{""image_name"":""wolf_1.jpg"",""trial"":1,""block"":1,""phase"":""main"",""grid_col"":6,""grid_row"":5,""posX"":632,""posY"":520,""timestamp"":20535.799999952316}]"
"","","","","","emotion-grid","9","null","30073","","","","demo","main","1","2","2","[{""participant"":""demo"",""phase"":""main"",""block"":1,""trial"":2,""trial_in_block"":2,""image"":""clock_1.jpg"",""final_img_pos"":""(736, 208)"",""posX"":736,""posY"":208,""grid_col"":7,""grid_row"":2,""introduction_order"":1},{""participant"":""demo"",""phase"":""main"",""block"":1,""trial"":2,""trial_in_block"":2,""image"":""envelope_1.jpg"",""final_img_pos"":""(528, 208)"",""posX"":528,""posY"":208,""grid_col"":5,""grid_row"":2,""introduction_order"":2},{""participant"":""demo"",""phase"":""main"",""block"":1,""trial"":2,""trial_in_block"":2,""image"":""fireworks_1.jpg"",""final_img_pos"":""(320, 312)"",""posX"":320,""posY"":312,""grid_col"":3,""grid_row"":3,""introduction_order"":3},{""participant"":""demo"",""phase"":""main"",""block"":1,""trial"":2,""trial_in_block"":2,""image"":""flag_1.jpg"",""final_img_pos"":""(320, 520)"",""posX"":320,""posY"":520,""grid_col"":3,""grid_row"":5,""introduction_order"":4},{""participant"":""demo"",""phase"":""main"",""block"":1,""trial"":2,""trial_in_block"":2,""image"":""ladder_1.jpg"",""final_img_pos"":""(216, 416)"",""posX"":216,""posY"":416,""grid_col"":2,""grid_row"":4,""introduction_order"":5},{""participant"":""demo"",""phase"":""main"",""block"":1,""trial"":2,""trial_in_block"":2,""image"":""mirror_1.jpg"",""final_img_pos"":""(528, 520)"",""posX"":528,""posY"":520,""grid_col"":5,""grid_row"":5,""introduction_order"":6},{""participant"":""demo"",""phase"":""main"",""block"":1,""trial"":2,""trial_in_block"":2,""image"":""snowman_1.jpg"",""final_img_pos"":""(840, 416)"",""posX"":840,""posY"":416,""grid_col"":8,""grid_row"":4,""introduction_order"":7},{""participant"":""demo"",""phase"":""main"",""block"":1,""trial"":2,""trial_in_block"":2,""image"":""tent_1.jpg"",""final_img_pos"":""(840, 312)"",""posX"":840,""posY"":312,""grid_col"":8,""grid_row"":3,""introduction_order"":8},{""participant"":""demo"",""phase"":""main"",""block"":1,""trial"":2,""trial_in_block"":2,""image"":""window_1.jpg"",""final_img_pos"":""(736, 520)"",""posX"":736,""posY"":520,""grid_col"":7,""grid_row"":5,""introduction_order"":9},{""participant"":""demo"",""phase"":""main"",""block"":1,""trial"":2,""trial_in_block"":2,""image"":""balloon_1.jpg"",""final_img_pos"":""(736, 312)"",""posX"":736,""posY"":312,""grid_col"":7,""grid_row"":3,""introduction_order"":10},{""participant"":""demo"",""phase"":""main"",""block"":1,""trial"":2,""trial_in_block"":2,""image"":""camera_1.jpg"",""final_img_pos"":""(632, 208)"",""posX"":632,""posY"":208,""grid_col"":6,""grid_row"":2,""introduction_order"":11},{""participant"":""demo"",""phase"":""main"",""block"":1,""trial"":2,""trial_in_block"":2,""image"":""candle_1.jpg"",""final_img_pos"":""(424, 312)"",""posX"":424,""posY"":312,""grid_col"":4,""grid_row"":3,""introduction_order"":12}]","[{""image_name"":""clock_1.jpg"",""trial"":2,""block"":1,""phase"":""main"",""grid_col"":7,""grid_row"":2,""posX"":736,""posY"":208,""timestamp"":23138.5},{""image_name"":""envelope_1.jpg"",""trial"":2,""block"":1,""phase"":""main"",""grid_col"":5,""grid_row"":2,""posX"":528,""posY"":208,""timestamp"":23734.099999904633},{""image_name"":""fireworks_1.jpg"",""trial"":2,""block"":1,""phase"":""main"",""grid_col"":3,""grid_row"":3,""posX"":320,""posY"":312,""timestamp"":24397.39999985695},{""image_name"":""flag_1.jpg"",""trial"":2,""block"":1,""phase"":""main"",""grid_col"":3,""grid_row"":5,""posX"":320,""posY"":520,""timestamp"":24951.099999904633},{""image_name"":""ladder_1.jpg"",""trial"":2,""block"":1,""phase"":""main"",""grid_col"":2,""grid_row"":4,""posX"":216,""posY"":416,""timestamp"":25546.799999952316},{""image_name"":""mirror_1.jpg"",""trial"":2,""block"":1,""phase"":""main"",""grid_col"":5,""grid_row"":5,""posX"":528,""posY"":520,""timestamp"":26180.799999952316},{""image_name"":""snowman_1.jpg"",""trial"":2,""block"":1,""phase"":""main"",""grid_col"":8,""grid_row"":4,""posX"":840,""posY"":416,""timestamp"":26755.099999904633},{""image_name"":""tent_1.jpg"",""trial"":2,""block"":1,""phase"":""main"",""grid_col"":8,""grid_row"":3,""posX"":840,""posY"":312,""timestamp"":27321.799999952316},{""image_name"":""window_1.jpg"",""trial"":2,""block"":1,""phase"":""main"",""grid_col"":7,""grid_row"":5,""posX"":736,""posY"":520,""timestamp"":27950.799999952316},{""image_name"":""balloon_1.jpg"",""trial"":2,""block"":1,""phase"":""main"",""grid_col"":7,""grid_row"":3,""posX"":736,""posY"":312,""timestamp"":28542.599999904633},{""image_name"":""camera_1.jpg"",""trial"":2,""block"":1,""phase"":""main"",""grid_col"":6,""grid_row"":2,""posX"":632,""posY"":208,""timestamp"":29092.699999809265},{""image_name"":""candle_1.jpg"",""trial"":2,""block"":1,""phase"":""main"",""grid_col"":4,""grid_row"":3,""posX"":424,""posY"":312,""timestamp"":29684.299999952316}]"
"","","","","","emotion-grid","10","null","150427","","","","demo","main","1","3","3","[{""participant"":""demo"",""phase"":""main"",""block"":1,""trial"":3,""trial_in_block"":3,""image"":""broccoli_1.jpg"",""final_img_pos"":""(736, 208)"",""posX"":736,""posY"":208,""grid_col"":7,""grid_row"":2,""introduction_order"":1},{""participant"":""demo"",""phase"":""main"",""block"":1,""trial"":3,""trial_in_block"":3,""image"":""cabbage_1.jpg"",""final_img_pos"":""(528, 104)"",""posX"":528,""posY"":104,""grid_col"":5,""grid_row"":1,""introduction_order"":2},{""participant"":""demo"",""phase"":""main"",""block"":1,""trial"":3,""trial_in_block"":3,""image"":""cactus_1.jpg"",""final_img_pos"":""(424, 416)"",""posX"":424,""posY"":416,""grid_col"":4,""grid_row"":4,""introduction_order"":3},{""participant"":""demo"",""phase"":""main"",""block"":1,""trial"":3,""trial_in_block"":3,""image"":""cherry_1.jpg"",""final_img_pos"":""(632, 416)"",""posX"":632,""posY"":416,""grid_col"":6,""grid_row"":4,""introduction_order"":4},{""participant"":""demo"",""phase"":""main"",""block"":1,""trial"":3,""trial_in_block"":3,""image"":""flower_1.jpg"",""final_img_pos"":""(528, 624)"",""posX"":528,""posY"":624,""grid_col"":5,""grid_row"":6,""introduction_order"":5},{""participant"":""demo"",""phase"":""main"",""block"":1,""trial"":3,""trial_in_block"":3,""image"":""grass_1.jpg"",""final_img_pos"":""(632, 208)"",""posX"":632,""posY"":208,""grid_col"":6,""grid_row"":2,""introduction_order"":6},{""participant"":""demo"",""phase"":""main"",""block"":1,""trial"":3,""trial_in_block"":3,""image"":""leaf_1.jpg"",""final_img_pos"":""(528, 208)"",""posX"":528,""posY"":208,""grid_col"":5,""grid_row"":2,""introduction_order"":7},{""participant"":""demo"",""phase"":""main"",""block"":1,""trial"":3,""trial_in_block"":3,""image"":""tree_1.jpg"",""final_img_pos"":""(424, 208)"",""posX"":424,""posY"":208,""grid_col"":4,""grid_row"":2,""introduction_order"":8},{""participant"":""demo"",""phase"":""main"",""block"":1,""trial"":3,""trial_in_block"":3,""image"":""acorn_1.jpg"",""final_img_pos"":""(216, 312)"",""posX"":216,""posY"":312,""grid_col"":2,""grid_row"":3,""introduction_order"":9},{""participant"":""demo"",""phase"":""main"",""block"":1,""trial"":3,""trial_in_block"":3,""image"":""apple_1.jpg"",""final_img_pos"":""(632, 312)"",""posX"":632,""posY"":312,""grid_col"":6,""grid_row"":3,""introduction_order"":10},{""participant"":""demo"",""phase"":""main"",""block"":1,""trial"":3,""trial_in_block"":3,""image"":""blueberry_1.jpg"",""final_img_pos"":""(736, 416)"",""posX"":736,""posY"":416,""grid_col"":7,""grid_row"":4,""introduction_order"":11},{""participant"":""demo"",""phase"":""main"",""block"":1,""trial"":3,""trial_in_block"":3,""image"":""peanut_1.jpg"",""final_img_pos"":""(216, 416)"",""posX"":216,""posY"":416,""grid_col"":2,""grid_row"":4,""introduction_order"":12}]","[{""image_name"":""broccoli_1.jpg"",""trial"":3,""block"":1,""phase"":""main"",""grid_col"":7,""grid_row"":2,""posX"":736,""posY"":208,""timestamp"":31489},{""image_name"":""cabbage_1.jpg"",""trial"":3,""block"":1,""phase"":""main"",""grid_col"":5,""grid_row"":1,""posX"":528,""posY"":104,""timestamp"":32042.5},{""image_name"":""cactus_1.jpg"",""trial"":3,""block"":1,""phase"":""main"",""grid_col"":4,""grid_row"":4,""posX"":424,""posY"":416,""timestamp"":142382.29999995232},{""image_name"":""cherry_1.jpg"",""trial"":3,""block"":1,""phase"":""main"",""grid_col"":6,""grid_row"":4,""posX"":632,""posY"":416,""timestamp"":142834.59999990463},{""image_name"":""flower_1.jpg"",""trial"":3,""block"":1,""phase"":""main"",""grid_col"":5,""grid_row"":6,""posX"":528,""posY"":624,""timestamp"":143479.59999990463},{""image_name"":""grass_1.jpg"",""trial"":3,""block"":1,""phase"":""main"",""grid_col"":6,""grid_row"":2,""posX"":632,""posY"":208,""timestamp"":144360.09999990463},{""image_name"":""leaf_1.jpg"",""trial"":3,""block"":1,""phase"":""main"",""grid_col"":5,""grid_row"":2,""posX"":528,""posY"":208,""timestamp"":145071.39999985695},{""image_name"":""tree_1.jpg"",""trial"":3,""block"":1,""phase"":""main"",""grid_col"":4,""grid_row"":2,""posX"":424,""posY"":208,""timestamp"":145750.69999980927},{""image_name"":""acorn_1.jpg"",""trial"":3,""block"":1,""phase"":""main"",""grid_col"":2,""grid_row"":3,""posX"":216,""posY"":312,""timestamp"":146804.69999980927},{""image_name"":""apple_1.jpg"",""trial"":3,""block"":1,""phase"":""main"",""grid_col"":6,""grid_row"":3,""posX"":632,""posY"":312,""timestamp"":147617},{""image_name"":""blueberry_1.jpg"",""trial"":3,""block"":1,""phase"":""main"",""grid_col"":7,""grid_row"":4,""posX"":736,""posY"":416,""timestamp"":148329.5},{""image_name"":""peanut_1.jpg"",""trial"":3,""block"":1,""phase"":""main"",""grid_col"":2,""grid_row"":3,""posX"":216,""posY"":312,""timestamp"":149300.5},{""image_name"":""peanut_1.jpg"",""trial"":3,""block"":1,""phase"":""main"",""grid_col"":2,""grid_row"":4,""posX"":216,""posY"":416,""timestamp"":150100.59999990463}]"
"","","","","","html-button-response","11","2.1.0","151549","1122","
      <div style=""font-size:24px; line-height:1.5; padding:20px;"">
        Block 2 of 2<br><br>
        This block has 3 trials.
      </div>
    ","0","","","","","","",""
"","","","","","emotion-grid","12","null","221462","","","","demo","main","2","4","1","[{""participant"":""demo"",""phase"":""main"",""block"":2,""trial"":4,""trial_in_block"":1,""image"":""peacock_2.jpg"",""final_img_pos"":""(736, 208)"",""posX"":736,""posY"":208,""grid_col"":7,""grid_row"":2,""introduction_order"":1},{""participant"":""demo"",""phase"":""main"",""block"":2,""trial"":4,""trial_in_block"":1,""image"":""dolphin_2.jpg"",""final_img_pos"":""(736, 416)"",""posX"":736,""posY"":416,""grid_col"":7,""grid_row"":4,""introduction_order"":2},{""participant"":""demo"",""phase"":""main"",""block"":2,""trial"":4,""trial_in_block"":1,""image"":""pigeon_2.jpg"",""final_img_pos"":""(736, 312)"",""posX"":736,""posY"":312,""grid_col"":7,""grid_row"":3,""introduction_order"":3},{""participant"":""demo"",""phase"":""main"",""block"":2,""trial"":4,""trial_in_block"":1,""image"":""fox_2.jpg"",""final_img_pos"":""(632, 104)"",""posX"":632,""posY"":104,""grid_col"":6,""grid_row"":1,""introduction_order"":4},{""participant"":""demo"",""phase"":""main"",""block"":2,""trial"":4,""trial_in_block"":1,""image"":""lion_2.jpg"",""final_img_pos"":""(424, 208)"",""posX"":424,""posY"":208,""grid_col"":4,""grid_row"":2,""introduction_order"":5},{""participant"":""demo"",""phase"":""main"",""block"":2,""trial"":4,""trial_in_block"":1,""image"":""sheep_2.jpg"",""final_img_pos"":""(424, 416)"",""posX"":424,""posY"":416,""grid_col"":4,""grid_row"":4,""introduction_order"":6},{""participant"":""demo"",""phase"":""main"",""block"":2,""trial"":4,""trial_in_block"":1,""image"":""horse_2.jpg"",""final_img_pos"":""(320, 312)"",""posX"":320,""posY"":312,""grid_col"":3,""grid_row"":3,""introduction_order"":7},{""participant"":""demo"",""phase"":""main"",""block"":2,""trial"":4,""trial_in_block"":1,""image"":""fish_2.jpg"",""final_img_pos"":""(424, 520)"",""posX"":424,""posY"":520,""grid_col"":4,""grid_row"":5,""introduction_order"":8},{""participant"":""demo"",""phase"":""main"",""block"":2,""trial"":4,""trial_in_block"":1,""image"":""squirrel_2.jpg"",""final_img_pos"":""(528, 624)"",""posX"":528,""posY"":624,""grid_col"":5,""grid_row"":6,""introduction_order"":9},{""participant"":""demo"",""phase"":""main"",""block"":2,""trial"":4,""trial_in_block"":1,""image"":""butterfly_2.jpg"",""final_img_pos"":""(632, 520)"",""posX"":632,""posY"":520,""grid_col"":6,""grid_row"":5,""introduction_order"":10},{""participant"":""demo"",""phase"":""main"",""block"":2,""trial"":4,""trial_in_block"":1,""image"":""ladybug_2.jpg"",""final_img_pos"":""(632, 312)"",""posX"":632,""posY"":312,""grid_col"":6,""grid_row"":3,""introduction_order"":11},{""participant"":""demo"",""phase"":""main"",""block"":2,""trial"":4,""trial_in_block"":1,""image"":""wolf_2.jpg"",""final_img_pos"":""(528, 208)"",""posX"":528,""posY"":208,""grid_col"":5,""grid_row"":2,""introduction_order"":12}]","[{""image_name"":""peacock_2.jpg"",""trial"":4,""block"":2,""phase"":""main"",""grid_col"":7,""grid_row"":2,""posX"":736,""posY"":208,""timestamp"":153089},{""image_name"":""dolphin_2.jpg"",""trial"":4,""block"":2,""phase"":""main"",""grid_col"":7,""grid_row"":4,""posX"":736,""posY"":416,""timestamp"":153900.39999985695},{""image_name"":""pigeon_2.jpg"",""trial"":4,""block"":2,""phase"":""main"",""grid_col"":7,""grid_row"":3,""posX"":736,""posY"":312,""timestamp"":154508.09999990463},{""image_name"":""fox_2.jpg"",""trial"":4,""block"":2,""phase"":""main"",""grid_col"":6,""grid_row"":1,""posX"":632,""posY"":104,""timestamp"":155093.29999995232},{""image_name"":""lion_2.jpg"",""trial"":4,""block"":2,""phase"":""main"",""grid_col"":4,""grid_row"":2,""posX"":424,""posY"":208,""timestamp"":155697},{""image_name"":""sheep_2.jpg"",""trial"":4,""block"":2,""phase"":""main"",""grid_col"":4,""grid_row"":4,""posX"":424,""posY"":416,""timestamp"":156417},{""image_name"":""horse_2.jpg"",""trial"":4,""block"":2,""phase"":""main"",""grid_col"":4,""grid_row"":2,""posX"":424,""posY"":208,""timestamp"":217221.09999990463},{""image_name"":""horse_2.jpg"",""trial"":4,""block"":2,""phase"":""main"",""grid_col"":3,""grid_row"":3,""posX"":320,""posY"":312,""timestamp"":217979.39999985695},{""image_name"":""fish_2.jpg"",""trial"":4,""block"":2,""phase"":""main"",""grid_col"":4,""grid_row"":5,""posX"":424,""posY"":520,""timestamp"":218668},{""image_name"":""squirrel_2.jpg"",""trial"":4,""block"":2,""phase"":""main"",""grid_col"":5,""grid_row"":6,""posX"":528,""posY"":624,""timestamp"":219304.89999985695},{""image_name"":""butterfly_2.jpg"",""trial"":4,""block"":2,""phase"":""main"",""grid_col"":6,""grid_row"":5,""posX"":632,""posY"":520,""timestamp"":219963},{""image_name"":""ladybug_2.jpg"",""trial"":4,""block"":2,""phase"":""main"",""grid_col"":6,""grid_row"":3,""posX"":632,""posY"":312,""timestamp"":220625.5},{""image_name"":""wolf_2.jpg"",""trial"":4,""block"":2,""phase"":""main"",""grid_col"":5,""grid_row"":2,""posX"":528,""posY"":208,""timestamp"":221213.5}]"
"","","","","","emotion-grid","13","null","231272","","","","demo","main","2","5","2","[{""participant"":""demo"",""phase"":""main"",""block"":2,""trial"":5,""trial_in_block"":2,""image"":""clock_2.jpg"",""final_img_pos"":""(736, 208)"",""posX"":736,""posY"":208,""grid_col"":7,""grid_row"":2,""introduction_order"":1},{""participant"":""demo"",""phase"":""main"",""block"":2,""trial"":5,""trial_in_block"":2,""image"":""envelope_2.jpg"",""final_img_pos"":""(528, 208)"",""posX"":528,""posY"":208,""grid_col"":5,""grid_row"":2,""introduction_order"":2},{""participant"":""demo"",""phase"":""main"",""block"":2,""trial"":5,""trial_in_block"":2,""image"":""fireworks_2.jpg"",""final_img_pos"":""(216, 312)"",""posX"":216,""posY"":312,""grid_col"":2,""grid_row"":3,""introduction_order"":3},{""participant"":""demo"",""phase"":""main"",""block"":2,""trial"":5,""trial_in_block"":2,""image"":""flag_2.jpg"",""final_img_pos"":""(424, 416)"",""posX"":424,""posY"":416,""grid_col"":4,""grid_row"":4,""introduction_order"":4},{""participant"":""demo"",""phase"":""main"",""block"":2,""trial"":5,""trial_in_block"":2,""image"":""ladder_2.jpg"",""final_img_pos"":""(528, 624)"",""posX"":528,""posY"":624,""grid_col"":5,""grid_row"":6,""introduction_order"":5},{""participant"":""demo"",""phase"":""main"",""block"":2,""trial"":5,""trial_in_block"":2,""image"":""mirror_2.jpg"",""final_img_pos"":""(736, 520)"",""posX"":736,""posY"":520,""grid_col"":7,""grid_row"":5,""introduction_order"":6},{""participant"":""demo"",""phase"":""main"",""block"":2,""trial"":5,""trial_in_block"":2,""image"":""snowman_2.jpg"",""final_img_pos"":""(736, 312)"",""posX"":736,""posY"":312,""grid_col"":7,""grid_row"":3,""introduction_order"":7},{""participant"":""demo"",""phase"":""main"",""block"":2,""trial"":5,""trial_in_block"":2,""image"":""tent_2.jpg"",""final_img_pos"":""(632, 208)"",""posX"":632,""posY"":208,""grid_col"":6,""grid_row"":2,""introduction_order"":8},{""participant"":""demo"",""phase"":""main"",""block"":2,""trial"":5,""trial_in_block"":2,""image"":""window_2.jpg"",""final_img_pos"":""(320, 312)"",""posX"":320,""posY"":312,""grid_col"":3,""grid_row"":3,""introduction_order"":9},{""participant"":""demo"",""phase"":""main"",""block"":2,""trial"":5,""trial_in_block"":2,""image"":""balloon_2.jpg"",""final_img_pos"":""(320, 208)"",""posX"":320,""posY"":208,""grid_col"":3,""grid_row"":2,""introduction_order"":10},{""participant"":""demo"",""phase"":""main"",""block"":2,""trial"":5,""trial_in_block"":2,""image"":""camera_2.jpg"",""final_img_pos"":""(320, 520)"",""posX"":320,""posY"":520,""grid_col"":3,""grid_row"":5,""introduction_order"":11},{""participant"":""demo"",""phase"":""main"",""block"":2,""trial"":5,""trial_in_block"":2,""image"":""candle_2.jpg"",""final_img_pos"":""(320, 416)"",""posX"":320,""posY"":416,""grid_col"":3,""grid_row"":4,""introduction_order"":12}]","[{""image_name"":""clock_2.jpg"",""trial"":5,""block"":2,""phase"":""main"",""grid_col"":7,""grid_row"":2,""posX"":736,""posY"":208,""timestamp"":222814.79999995232},{""image_name"":""envelope_2.jpg"",""trial"":5,""block"":2,""phase"":""main"",""grid_col"":5,""grid_row"":2,""posX"":528,""posY"":208,""timestamp"":223397.79999995232},{""image_name"":""fireworks_2.jpg"",""trial"":5,""block"":2,""phase"":""main"",""grid_col"":2,""grid_row"":3,""posX"":216,""posY"":312,""timestamp"":224033.69999980927},{""image_name"":""flag_2.jpg"",""trial"":5,""block"":2,""phase"":""main"",""grid_col"":4,""grid_row"":4,""posX"":424,""posY"":416,""timestamp"":224739.19999980927},{""image_name"":""ladder_2.jpg"",""trial"":5,""block"":2,""phase"":""main"",""grid_col"":5,""grid_row"":6,""posX"":528,""posY"":624,""timestamp"":225306.29999995232},{""image_name"":""mirror_2.jpg"",""trial"":5,""block"":2,""phase"":""main"",""grid_col"":7,""grid_row"":5,""posX"":736,""posY"":520,""timestamp"":226030},{""image_name"":""snowman_2.jpg"",""trial"":5,""block"":2,""phase"":""main"",""grid_col"":7,""grid_row"":3,""posX"":736,""posY"":312,""timestamp"":226637.79999995232},{""image_name"":""tent_2.jpg"",""trial"":5,""block"":2,""phase"":""main"",""grid_col"":6,""grid_row"":2,""posX"":632,""posY"":208,""timestamp"":227258.69999980927},{""image_name"":""window_2.jpg"",""trial"":5,""block"":2,""phase"":""main"",""grid_col"":3,""grid_row"":3,""posX"":320,""posY"":312,""timestamp"":227900.29999995232},{""image_name"":""balloon_2.jpg"",""trial"":5,""block"":2,""phase"":""main"",""grid_col"":3,""grid_row"":2,""posX"":320,""posY"":208,""timestamp"":228608.69999980927},{""image_name"":""camera_2.jpg"",""trial"":5,""block"":2,""phase"":""main"",""grid_col"":3,""grid_row"":5,""posX"":320,""posY"":520,""timestamp"":229287.89999985695},{""image_name"":""candle_2.jpg"",""trial"":5,""block"":2,""phase"":""main"",""grid_col"":3,""grid_row"":5,""posX"":320,""posY"":520,""timestamp"":229993.59999990463},{""image_name"":""candle_2.jpg"",""trial"":5,""block"":2,""phase"":""main"",""grid_col"":3,""grid_row"":4,""posX"":320,""posY"":416,""timestamp"":230733.69999980927}]"
"","","","","","emotion-grid","14","null","239637","","","","demo","main","2","6","3","[{""participant"":""demo"",""phase"":""main"",""block"":2,""trial"":6,""trial_in_block"":3,""image"":""broccoli_2.jpg"",""final_img_pos"":""(632, 104)"",""posX"":632,""posY"":104,""grid_col"":6,""grid_row"":1,""introduction_order"":1},{""participant"":""demo"",""phase"":""main"",""block"":2,""trial"":6,""trial_in_block"":3,""image"":""cabbage_2.jpg"",""final_img_pos"":""(424, 104)"",""posX"":424,""posY"":104,""grid_col"":4,""grid_row"":1,""introduction_order"":2},{""participant"":""demo"",""phase"":""main"",""block"":2,""trial"":6,""trial_in_block"":3,""image"":""cactus_2.jpg"",""final_img_pos"":""(320, 312)"",""posX"":320,""posY"":312,""grid_col"":3,""grid_row"":3,""introduction_order"":3},{""participant"":""demo"",""phase"":""main"",""block"":2,""trial"":6,""trial_in_block"":3,""image"":""cherry_2.jpg"",""final_img_pos"":""(424, 416)"",""posX"":424,""posY"":416,""grid_col"":4,""grid_row"":4,""introduction_order"":4},{""participant"":""demo"",""phase"":""main"",""block"":2,""trial"":6,""trial_in_block"":3,""image"":""flower_2.jpg"",""final_img_pos"":""(528, 208)"",""posX"":528,""posY"":208,""grid_col"":5,""grid_row"":2,""introduction_order"":5},{""participant"":""demo"",""phase"":""main"",""block"":2,""trial"":6,""trial_in_block"":3,""image"":""grass_2.jpg"",""final_img_pos"":""(736, 208)"",""posX"":736,""posY"":208,""grid_col"":7,""grid_row"":2,""introduction_order"":6},{""participant"":""demo"",""phase"":""main"",""block"":2,""trial"":6,""trial_in_block"":3,""image"":""leaf_2.jpg"",""final_img_pos"":""(736, 416)"",""posX"":736,""posY"":416,""grid_col"":7,""grid_row"":4,""introduction_order"":7},{""participant"":""demo"",""phase"":""main"",""block"":2,""trial"":6,""trial_in_block"":3,""image"":""tree_2.jpg"",""final_img_pos"":""(840, 312)"",""posX"":840,""posY"":312,""grid_col"":8,""grid_row"":3,""introduction_order"":8},{""participant"":""demo"",""phase"":""main"",""block"":2,""trial"":6,""trial_in_block"":3,""image"":""acorn_2.jpg"",""final_img_pos"":""(632, 624)"",""posX"":632,""posY"":624,""grid_col"":6,""grid_row"":6,""introduction_order"":9},{""participant"":""demo"",""phase"":""main"",""block"":2,""trial"":6,""trial_in_block"":3,""image"":""apple_2.jpg"",""final_img_pos"":""(528, 520)"",""posX"":528,""posY"":520,""grid_col"":5,""grid_row"":5,""introduction_order"":10},{""participant"":""demo"",""phase"":""main"",""block"":2,""trial"":6,""trial_in_block"":3,""image"":""blueberry_2.jpg"",""final_img_pos"":""(320, 624)"",""posX"":320,""posY"":624,""grid_col"":3,""grid_row"":6,""introduction_order"":11},{""participant"":""demo"",""phase"":""main"",""block"":2,""trial"":6,""trial_in_block"":3,""image"":""peanut_2.jpg"",""final_img_pos"":""(320, 416)"",""posX"":320,""posY"":416,""grid_col"":3,""grid_row"":4,""introduction_order"":12}]","[{""image_name"":""broccoli_2.jpg"",""trial"":6,""block"":2,""phase"":""main"",""grid_col"":6,""grid_row"":1,""posX"":632,""posY"":104,""timestamp"":232609.09999990463},{""image_name"":""cabbage_2.jpg"",""trial"":6,""block"":2,""phase"":""main"",""grid_col"":4,""grid_row"":1,""posX"":424,""posY"":104,""timestamp"":233217.89999985695},{""image_name"":""cactus_2.jpg"",""trial"":6,""block"":2,""phase"":""main"",""grid_col"":3,""grid_row"":3,""posX"":320,""posY"":312,""timestamp"":233862.89999985695},{""image_name"":""cherry_2.jpg"",""trial"":6,""block"":2,""phase"":""main"",""grid_col"":4,""grid_row"":4,""posX"":424,""posY"":416,""timestamp"":234429.5},{""image_name"":""flower_2.jpg"",""trial"":6,""block"":2,""phase"":""main"",""grid_col"":5,""grid_row"":2,""posX"":528,""posY"":208,""timestamp"":235021.59999990463},{""image_name"":""grass_2.jpg"",""trial"":6,""block"":2,""phase"":""main"",""grid_col"":7,""grid_row"":2,""posX"":736,""posY"":208,""timestamp"":235604.29999995232},{""image_name"":""leaf_2.jpg"",""trial"":6,""block"":2,""phase"":""main"",""grid_col"":7,""grid_row"":4,""posX"":736,""posY"":416,""timestamp"":236154.5},{""image_name"":""tree_2.jpg"",""trial"":6,""block"":2,""phase"":""main"",""grid_col"":8,""grid_row"":3,""posX"":840,""posY"":312,""timestamp"":236721.39999985695},{""image_name"":""acorn_2.jpg"",""trial"":6,""block"":2,""phase"":""main"",""grid_col"":6,""grid_row"":6,""posX"":632,""posY"":624,""timestamp"":237330.5},{""image_name"":""apple_2.jpg"",""trial"":6,""block"":2,""phase"":""main"",""grid_col"":5,""grid_row"":5,""posX"":528,""posY"":520,""timestamp"":237958.79999995232},{""image_name"":""blueberry_2.jpg"",""trial"":6,""block"":2,""phase"":""main"",""grid_col"":3,""grid_row"":6,""posX"":320,""posY"":624,""timestamp"":238608.59999990463},{""image_name"":""peanut_2.jpg"",""trial"":6,""block"":2,""phase"":""main"",""grid_col"":3,""grid_row"":4,""posX"":320,""posY"":416,""timestamp"":239341.89999985695}]"
