"trial_type","trial_index","plugin_version","time_elapsed","category_order","set_assignment","participant_id","version","success","timeout","failed_images","failed_audio","failed_video","participant","phase","image_order","block","trial","trial_in_block","placements","move_log","rt","stimulus","response"
"html-button-response","0","2.1.0","3212","plants,animals,emotions","{""plants"":{""block1"":0,""block2"":1},""animals"":{""block1"":0,""block2"":1},""emotions"":{""block1"":0,""block2"":1}}","2","2","","","","","","","","","","","","","","","",""
"preload","1","2.1.0","4530","plants,animals,emotions","{""plants"":{""block1"":0,""block2"":1},""animals"":{""block1"":0,""block2"":1},""emotions"":{""block1"":0,""block2"":1}}","2","2","true","false","[]","[]","[]","","","","","","","","","","",""
"html-button-response","2","2.1.0","34925","plants,animals,emotions","{""plants"":{""block1"":0,""block2"":1},""animals"":{""block1"":0,""block2"":1},""emotions"":{""block1"":0,""block2"":1}}","2","2","","","","","","","","","","","","","","","",""
"html-button-response","3","2.1.0","45001","plants,animals,emotions","{""plants"":{""block1"":0,""block2"":1},""animals"":{""block1"":0,""block2"":1},""emotions"":{""block1"":0,""block2"":1}}","2","2","","","","","","","","","","","","","","","",""
"emotion-grid","4","null","141684","plants,animals,emotions","{""plants"":{""block1"":0,""block2"":1},""animals"":{""block1"":0,""block2"":1},""emotions"":{""block1"":0,""block2"":1}}","2","2","","","","","","demo","practice","","null","-1","-1","[{""participant"":""demo"",""phase"":""practice"",""block"":null,""trial"":-1,""trial_in_block"":-1,""image"":""pizza_1.jpg"",""final_img_pos"":""(112, 104)"",""posX"":112,""posY"":104,""grid_col"":1,""grid_row"":1,""introduction_order"":1},{""participant"":""demo"",""phase"":""practice"",""block"":null,""trial"":-1,""trial_in_block"":-1,""image"":""pizza_2.jpg"",""final_img_pos"":""(320, 104)"",""posX"":320,""posY"":104,""grid_col"":3,""grid_row"":1,""introduction_order"":2},{""participant"":""demo"",""phase"":""practice"",""block"":null,""trial"":-1,""trial_in_block"":-1,""image"":""french_fries_1.jpg"",""final_img_pos"":""(736, 104)"",""posX"":736,""posY"":104,""grid_col"":7,""grid_row"":1,""introduction_order"":3},{""participant"":""demo"",""phase"":""practice"",""block"":null,""trial"":-1,""trial_in_block"":-1,""image"":""french_fries_2.jpg"",""final_img_pos"":""(944, 104)"",""posX"":944,""posY"":104,""grid_col"":9,""grid_row"":1,""introduction_order"":4},{""participant"":""demo"",""phase"":""practice"",""block"":null,""trial"":-1,""trial_in_block"":-1,""image"":""snowman_1.jpg"",""final_img_pos"":""(112, 416)"",""posX"":112,""posY"":416,""grid_col"":1,""grid_row"":4,""introduction_order"":5}]","[{""image_name"":""pizza_1.jpg"",""trial"":-1,""block"":null,""phase"":""practice"",""grid_col"":1,""grid_row"":1,""posX"":112,""posY"":104,""timestamp"":63277},{""image_name"":""pizza_2.jpg"",""trial"":-1,""block"":null,""phase"":""practice"",""grid_col"":3,""grid_row"":1,""posX"":320,""posY"":104,""timestamp"":95894},{""image_name"":""french_fries_1.jpg"",""trial"":-1,""block"":null,""phase"":""practice"",""grid_col"":7,""grid_row"":1,""posX"":736,""posY"":104,""timestamp"":113542},{""image_name"":""french_fries_2.jpg"",""trial"":-1,""block"":null,""phase"":""practice"",""grid_col"":9,""grid_row"":1,""posX"":944,""posY"":104,""timestamp"":121689},{""image_name"":""snowman_1.jpg"",""trial"":-1,""block"":null,""phase"":""practice"",""grid_col"":1,""grid_row"":4,""posX"":112,""posY"":416,""timestamp"":129277.00000000001}]","","",""
"html-button-response","5","2.1.0","153642","plants,animals,emotions","{""plants"":{""block1"":0,""block2"":1},""animals"":{""block1"":0,""block2"":1},""emotions"":{""block1"":0,""block2"":1}}","2","2","","","","","","","","","","","","","","11955","
      <div style=""
        display:flex;
        flex-direction:column;
        align-items:center;
        justify-content:center;
        padding:80px 20px 40px 20px;
        text-align:center;
      "">
        <img src=""stimuli/fireworks.gif"" style=""
          width:300px;
          height:200px;
          animation: spinScale 1.5s ease-in-out infinite;
          margin-bottom:30px;
        "">
        <div style=""font-size:28px; font-weight:600;"">
          Great job!
        </div>
      </div>


    ","0"
"html-button-response","6","2.1.0","178700","plants,animals,emotions","{""plants"":{""block1"":0,""block2"":1},""animals"":{""block1"":0,""block2"":1},""emotions"":{""block1"":0,""block2"":1}}","2","2","","","","","","","","","","","","","","","",""
"html-button-response","7","2.1.0","179786","plants,animals,emotions","{""plants"":{""block1"":0,""block2"":1},""animals"":{""block1"":0,""block2"":1},""emotions"":{""block1"":0,""block2"":1}}","2","2","","","","","","","","","","","","","","1085","
      <div style=""font-size:24px; padding:20px;"">
        Block 1 of 2
      </div>
    ","0"
"html-button-response","8","2.1.0","185965","plants,animals,emotions","{""plants"":{""block1"":0,""block2"":1},""animals"":{""block1"":0,""block2"":1},""emotions"":{""block1"":0,""block2"":1}}","2","2","","","","","","","","","","","","","","","",""
"emotion-grid","9","null","279688","plants,animals,emotions","{""plants"":{""block1"":0,""block2"":1},""animals"":{""block1"":0,""block2"":1},""emotions"":{""block1"":0,""block2"":1}}","2","2","","","","","","demo","main","[""stimuli/plants/cactus_1.jpg"",""stimuli/plants/peanut_1.jpg"",""stimuli/plants/apple_1.jpg"",""stimuli/plants/leaf_1.jpg"",""stimuli/plants/broccoli_1.jpg"",""stimuli/plants/tree_1.jpg"",""stimuli/plants/grass_1.jpg"",""stimuli/plants/cherry_1.jpg"",""stimuli/plants/flower_1.jpg"",""stimuli/plants/blueberry_1.jpg"",""stimuli/plants/acorn_1.jpg"",""stimuli/plants/cabbage_1.jpg""]","1","1","1","[{""participant"":""demo"",""phase"":""main"",""block"":1,""trial"":1,""trial_in_block"":1,""image"":""cactus_1.jpg"",""final_img_pos"":""(112, 104)"",""posX"":112,""posY"":104,""grid_col"":1,""grid_row"":1,""introduction_order"":1},{""participant"":""demo"",""phase"":""main"",""block"":1,""trial"":1,""trial_in_block"":1,""image"":""peanut_1.jpg"",""final_img_pos"":""(528, 104)"",""posX"":528,""posY"":104,""grid_col"":5,""grid_row"":1,""introduction_order"":2},{""participant"":""demo"",""phase"":""main"",""block"":1,""trial"":1,""trial_in_block"":1,""image"":""apple_1.jpg"",""final_img_pos"":""(944, 104)"",""posX"":944,""posY"":104,""grid_col"":9,""grid_row"":1,""introduction_order"":3},{""participant"":""demo"",""phase"":""main"",""block"":1,""trial"":1,""trial_in_block"":1,""image"":""leaf_1.jpg"",""final_img_pos"":""(112, 416)"",""posX"":112,""posY"":416,""grid_col"":1,""grid_row"":4,""introduction_order"":4},{""participant"":""demo"",""phase"":""main"",""block"":1,""trial"":1,""trial_in_block"":1,""image"":""broccoli_1.jpg"",""final_img_pos"":""(424, 416)"",""posX"":424,""posY"":416,""grid_col"":4,""grid_row"":4,""introduction_order"":5},{""participant"":""demo"",""phase"":""main"",""block"":1,""trial"":1,""trial_in_block"":1,""image"":""tree_1.jpg"",""final_img_pos"":""(840, 416)"",""posX"":840,""posY"":416,""grid_col"":8,""grid_row"":4,""introduction_order"":6},{""participant"":""demo"",""phase"":""main"",""block"":1,""trial"":1,""trial_in_block"":1,""image"":""grass_1.jpg"",""final_img_pos"":""(216, 624)"",""posX"":216,""posY"":624,""grid_col"":2,""grid_row"":6,""introduction_order"":7},{""participant"":""demo"",""phase"":""main"",""block"":1,""trial"":1,""trial_in_block"":1,""image"":""cherry_1.jpg"",""final_img_pos"":""(1048, 624)"",""posX"":1048,""posY"":624,""grid_col"":10,""grid_row"":6,""introduction_order"":8},{""participant"":""demo"",""phase"":""main"",""block"":1,""trial"":1,""trial_in_block"":1,""image"":""flower_1.jpg"",""final_img_pos"":""(632, 624)"",""posX"":632,""posY"":624,""grid_col"":6,""grid_row"":6,""introduction_order"":9},{""participant"":""demo"",""phase"":""main"",""block"":1,""trial"":1,""trial_in_block"":1,""image"":""blueberry_1.jpg"",""final_img_pos"":""(320, 208)"",""posX"":320,""posY"":208,""grid_col"":3,""grid_row"":2,""introduction_order"":10},{""participant"":""demo"",""phase"":""main"",""block"":1,""trial"":1,""trial_in_block"":1,""image"":""acorn_1.jpg"",""final_img_pos"":""(424, 624)"",""posX"":424,""posY"":624,""grid_col"":4,""grid_row"":6,""introduction_order"":11},{""participant"":""demo"",""phase"":""main"",""block"":1,""trial"":1,""trial_in_block"":1,""image"":""cabbage_1.jpg"",""final_img_pos"":""(1048, 312)"",""posX"":1048,""posY"":312,""grid_col"":10,""grid_row"":3,""introduction_order"":12}]","[{""image_name"":""cactus_1.jpg"",""trial"":1,""block"":1,""phase"":""main"",""grid_col"":1,""grid_row"":1,""posX"":112,""posY"":104,""timestamp"":191841},{""image_name"":""peanut_1.jpg"",""trial"":1,""block"":1,""phase"":""main"",""grid_col"":5,""grid_row"":1,""posX"":528,""posY"":104,""timestamp"":194985},{""image_name"":""apple_1.jpg"",""trial"":1,""block"":1,""phase"":""main"",""grid_col"":9,""grid_row"":1,""posX"":944,""posY"":104,""timestamp"":200464},{""image_name"":""leaf_1.jpg"",""trial"":1,""block"":1,""phase"":""main"",""grid_col"":1,""grid_row"":4,""posX"":112,""posY"":416,""timestamp"":203999},{""image_name"":""broccoli_1.jpg"",""trial"":1,""block"":1,""phase"":""main"",""grid_col"":4,""grid_row"":4,""posX"":424,""posY"":416,""timestamp"":209087.00000000003},{""image_name"":""tree_1.jpg"",""trial"":1,""block"":1,""phase"":""main"",""grid_col"":8,""grid_row"":4,""posX"":840,""posY"":416,""timestamp"":216807.00000000003},{""image_name"":""grass_1.jpg"",""trial"":1,""block"":1,""phase"":""main"",""grid_col"":1,""grid_row"":6,""posX"":112,""posY"":624,""timestamp"":223961},{""image_name"":""grass_1.jpg"",""trial"":1,""block"":1,""phase"":""main"",""grid_col"":2,""grid_row"":6,""posX"":216,""posY"":624,""timestamp"":225704},{""image_name"":""cherry_1.jpg"",""trial"":1,""block"":1,""phase"":""main"",""grid_col"":10,""grid_row"":6,""posX"":1048,""posY"":624,""timestamp"":232817},{""image_name"":""flower_1.jpg"",""trial"":1,""block"":1,""phase"":""main"",""grid_col"":6,""grid_row"":6,""posX"":632,""posY"":624,""timestamp"":237094},{""image_name"":""blueberry_1.jpg"",""trial"":1,""block"":1,""phase"":""main"",""grid_col"":3,""grid_row"":2,""posX"":320,""posY"":208,""timestamp"":240805},{""image_name"":""acorn_1.jpg"",""trial"":1,""block"":1,""phase"":""main"",""grid_col"":6,""grid_row"":4,""posX"":632,""posY"":416,""timestamp"":249981},{""image_name"":""cabbage_1.jpg"",""trial"":1,""block"":1,""phase"":""main"",""grid_col"":10,""grid_row"":3,""posX"":1048,""posY"":312,""timestamp"":256207},{""image_name"":""acorn_1.jpg"",""trial"":1,""block"":1,""phase"":""main"",""grid_col"":6,""grid_row"":4,""posX"":632,""posY"":416,""timestamp"":263169},{""image_name"":""acorn_1.jpg"",""trial"":1,""block"":1,""phase"":""main"",""grid_col"":6,""grid_row"":5,""posX"":632,""posY"":520,""timestamp"":264762},{""image_name"":""acorn_1.jpg"",""trial"":1,""block"":1,""phase"":""main"",""grid_col"":4,""grid_row"":6,""posX"":424,""posY"":624,""timestamp"":266381}]","","",""
"html-button-response","10","2.1.0","282625","plants,animals,emotions","{""plants"":{""block1"":0,""block2"":1},""animals"":{""block1"":0,""block2"":1},""emotions"":{""block1"":0,""block2"":1}}","2","2","","","","","","","","","","","","","","2934","
    <div style=""
      display:flex;
      flex-direction:column;
      align-items:center;
      justify-content:center;
      padding:80px 20px 40px 20px;
      text-align:center;
    "">
      <img src=""stimuli/star.png"" style=""
        width:160px;
        height:160px;
        animation: spinScale 1.5s ease-in-out infinite;
        margin-bottom:30px;
      "">
      <div style=""font-size:28px; font-weight:600;"">
        Great job!
      </div>
    </div>

    <style>
      @keyframes spinScale {
        0%   { transform: scale(1) rotate(0deg); }
        50%  { transform: scale(1.4) rotate(180deg); }
        100% { transform: scale(1) rotate(360deg); }
      }
    </style>
  ","0"
"html-button-response","11","2.1.0","286731","plants,animals,emotions","{""plants"":{""block1"":0,""block2"":1},""animals"":{""block1"":0,""block2"":1},""emotions"":{""block1"":0,""block2"":1}}","2","2","","","","","","","","","","","","","","","",""
"emotion-grid","12","null","323172","plants,animals,emotions","{""plants"":{""block1"":0,""block2"":1},""animals"":{""block1"":0,""block2"":1},""emotions"":{""block1"":0,""block2"":1}}","2","2","","","","","","demo","main","[""stimuli/animals/dolphin_1.jpg"",""stimuli/animals/peacock_1.jpg"",""stimuli/animals/wolf_1.jpg"",""stimuli/animals/lion_1.jpg"",""stimuli/animals/horse_1.jpg"",""stimuli/animals/butterfly_1.jpg"",""stimuli/animals/sheep_1.jpg"",""stimuli/animals/fox_1.jpg"",""stimuli/animals/ladybug_1.jpg"",""stimuli/animals/pigeon_1.jpg"",""stimuli/animals/squirrel_1.jpg"",""stimuli/animals/fish_1.jpg""]","1","2","2","[{""participant"":""demo"",""phase"":""main"",""block"":1,""trial"":2,""trial_in_block"":2,""image"":""dolphin_1.jpg"",""final_img_pos"":""(112, 104)"",""posX"":112,""posY"":104,""grid_col"":1,""grid_row"":1,""introduction_order"":1},{""participant"":""demo"",""phase"":""main"",""block"":1,""trial"":2,""trial_in_block"":2,""image"":""peacock_1.jpg"",""final_img_pos"":""(424, 104)"",""posX"":424,""posY"":104,""grid_col"":4,""grid_row"":1,""introduction_order"":2},{""participant"":""demo"",""phase"":""main"",""block"":1,""trial"":2,""trial_in_block"":2,""image"":""wolf_1.jpg"",""final_img_pos"":""(736, 104)"",""posX"":736,""posY"":104,""grid_col"":7,""grid_row"":1,""introduction_order"":3},{""participant"":""demo"",""phase"":""main"",""block"":1,""trial"":2,""trial_in_block"":2,""image"":""lion_1.jpg"",""final_img_pos"":""(1048, 104)"",""posX"":1048,""posY"":104,""grid_col"":10,""grid_row"":1,""introduction_order"":4},{""participant"":""demo"",""phase"":""main"",""block"":1,""trial"":2,""trial_in_block"":2,""image"":""horse_1.jpg"",""final_img_pos"":""(112, 416)"",""posX"":112,""posY"":416,""grid_col"":1,""grid_row"":4,""introduction_order"":5},{""participant"":""demo"",""phase"":""main"",""block"":1,""trial"":2,""trial_in_block"":2,""image"":""butterfly_1.jpg"",""final_img_pos"":""(320, 312)"",""posX"":320,""posY"":312,""grid_col"":3,""grid_row"":3,""introduction_order"":6},{""participant"":""demo"",""phase"":""main"",""block"":1,""trial"":2,""trial_in_block"":2,""image"":""sheep_1.jpg"",""final_img_pos"":""(632, 416)"",""posX"":632,""posY"":416,""grid_col"":6,""grid_row"":4,""introduction_order"":7},{""participant"":""demo"",""phase"":""main"",""block"":1,""trial"":2,""trial_in_block"":2,""image"":""fox_1.jpg"",""final_img_pos"":""(424, 416)"",""posX"":424,""posY"":416,""grid_col"":4,""grid_row"":4,""introduction_order"":8},{""participant"":""demo"",""phase"":""main"",""block"":1,""trial"":2,""trial_in_block"":2,""image"":""ladybug_1.jpg"",""final_img_pos"":""(840, 416)"",""posX"":840,""posY"":416,""grid_col"":8,""grid_row"":4,""introduction_order"":9},{""participant"":""demo"",""phase"":""main"",""block"":1,""trial"":2,""trial_in_block"":2,""image"":""pigeon_1.jpg"",""final_img_pos"":""(1048, 312)"",""posX"":1048,""posY"":312,""grid_col"":10,""grid_row"":3,""introduction_order"":10},{""participant"":""demo"",""phase"":""main"",""block"":1,""trial"":2,""trial_in_block"":2,""image"":""squirrel_1.jpg"",""final_img_pos"":""(840, 208)"",""posX"":840,""posY"":208,""grid_col"":8,""grid_row"":2,""introduction_order"":11},{""participant"":""demo"",""phase"":""main"",""block"":1,""trial"":2,""trial_in_block"":2,""image"":""fish_1.jpg"",""final_img_pos"":""(1048, 624)"",""posX"":1048,""posY"":624,""grid_col"":10,""grid_row"":6,""introduction_order"":12}]","[{""image_name"":""dolphin_1.jpg"",""trial"":2,""block"":1,""phase"":""main"",""grid_col"":1,""grid_row"":1,""posX"":112,""posY"":104,""timestamp"":289395},{""image_name"":""peacock_1.jpg"",""trial"":2,""block"":1,""phase"":""main"",""grid_col"":4,""grid_row"":1,""posX"":424,""posY"":104,""timestamp"":292038},{""image_name"":""wolf_1.jpg"",""trial"":2,""block"":1,""phase"":""main"",""grid_col"":7,""grid_row"":1,""posX"":736,""posY"":104,""timestamp"":294481},{""image_name"":""lion_1.jpg"",""trial"":2,""block"":1,""phase"":""main"",""grid_col"":10,""grid_row"":1,""posX"":1048,""posY"":104,""timestamp"":298450},{""image_name"":""horse_1.jpg"",""trial"":2,""block"":1,""phase"":""main"",""grid_col"":1,""grid_row"":4,""posX"":112,""posY"":416,""timestamp"":300735},{""image_name"":""butterfly_1.jpg"",""trial"":2,""block"":1,""phase"":""main"",""grid_col"":3,""grid_row"":3,""posX"":320,""posY"":312,""timestamp"":303087},{""image_name"":""sheep_1.jpg"",""trial"":2,""block"":1,""phase"":""main"",""grid_col"":6,""grid_row"":4,""posX"":632,""posY"":416,""timestamp"":304938},{""image_name"":""fox_1.jpg"",""trial"":2,""block"":1,""phase"":""main"",""grid_col"":4,""grid_row"":4,""posX"":424,""posY"":416,""timestamp"":307448},{""image_name"":""ladybug_1.jpg"",""trial"":2,""block"":1,""phase"":""main"",""grid_col"":8,""grid_row"":4,""posX"":840,""posY"":416,""timestamp"":312651},{""image_name"":""pigeon_1.jpg"",""trial"":2,""block"":1,""phase"":""main"",""grid_col"":10,""grid_row"":3,""posX"":1048,""posY"":312,""timestamp"":315269},{""image_name"":""squirrel_1.jpg"",""trial"":2,""block"":1,""phase"":""main"",""grid_col"":8,""grid_row"":2,""posX"":840,""posY"":208,""timestamp"":317212},{""image_name"":""fish_1.jpg"",""trial"":2,""block"":1,""phase"":""main"",""grid_col"":10,""grid_row"":6,""posX"":1048,""posY"":624,""timestamp"":321073}]","","",""
"html-button-response","13","2.1.0","326989","plants,animals,emotions","{""plants"":{""block1"":0,""block2"":1},""animals"":{""block1"":0,""block2"":1},""emotions"":{""block1"":0,""block2"":1}}","2","2","","","","","","","","","","","","","","3815","
    <div style=""
      display:flex;
      flex-direction:column;
      align-items:center;
      justify-content:center;
      padding:80px 20px 40px 20px;
      text-align:center;
    "">
      <img src=""stimuli/star.png"" style=""
        width:160px;
        height:160px;
        animation: spinScale 1.5s ease-in-out infinite;
        margin-bottom:30px;
      "">
      <div style=""font-size:28px; font-weight:600;"">
        Great job!
      </div>
    </div>

    <style>
      @keyframes spinScale {
        0%   { transform: scale(1) rotate(0deg); }
        50%  { transform: scale(1.4) rotate(180deg); }
        100% { transform: scale(1) rotate(360deg); }
      }
    </style>
  ","0"
"html-button-response","14","2.1.0","346957","plants,animals,emotions","{""plants"":{""block1"":0,""block2"":1},""animals"":{""block1"":0,""block2"":1},""emotions"":{""block1"":0,""block2"":1}}","2","2","","","","","","","","","","","","","","","",""
"emotion-grid","15","null","401422","plants,animals,emotions","{""plants"":{""block1"":0,""block2"":1},""animals"":{""block1"":0,""block2"":1},""emotions"":{""block1"":0,""block2"":1}}","2","2","","","","","","demo","main","[""stimuli/emotions/fearful_2.jpg"",""stimuli/emotions/sad_2.jpg"",""stimuli/emotions/disgust_2.jpg"",""stimuli/emotions/fearful_1.jpg"",""stimuli/emotions/angry_2.jpg"",""stimuli/emotions/disgust_1.jpg"",""stimuli/emotions/surprise_1.jpg"",""stimuli/emotions/happy_2.jpg"",""stimuli/emotions/sad_1.jpg"",""stimuli/emotions/happy_1.jpg"",""stimuli/emotions/angry_1.jpg"",""stimuli/emotions/surprise_2.jpg""]","1","3","3","[{""participant"":""demo"",""phase"":""main"",""block"":1,""trial"":3,""trial_in_block"":3,""image"":""fearful_2.jpg"",""final_img_pos"":""(112, 104)"",""posX"":112,""posY"":104,""grid_col"":1,""grid_row"":1,""introduction_order"":1},{""participant"":""demo"",""phase"":""main"",""block"":1,""trial"":3,""trial_in_block"":3,""image"":""sad_2.jpg"",""final_img_pos"":""(424, 104)"",""posX"":424,""posY"":104,""grid_col"":4,""grid_row"":1,""introduction_order"":2},{""participant"":""demo"",""phase"":""main"",""block"":1,""trial"":3,""trial_in_block"":3,""image"":""disgust_2.jpg"",""final_img_pos"":""(736, 104)"",""posX"":736,""posY"":104,""grid_col"":7,""grid_row"":1,""introduction_order"":3},{""participant"":""demo"",""phase"":""main"",""block"":1,""trial"":3,""trial_in_block"":3,""image"":""fearful_1.jpg"",""final_img_pos"":""(736, 416)"",""posX"":736,""posY"":416,""grid_col"":7,""grid_row"":4,""introduction_order"":4},{""participant"":""demo"",""phase"":""main"",""block"":1,""trial"":3,""trial_in_block"":3,""image"":""angry_2.jpg"",""final_img_pos"":""(320, 416)"",""posX"":320,""posY"":416,""grid_col"":3,""grid_row"":4,""introduction_order"":5},{""participant"":""demo"",""phase"":""main"",""block"":1,""trial"":3,""trial_in_block"":3,""image"":""disgust_1.jpg"",""final_img_pos"":""(424, 416)"",""posX"":424,""posY"":416,""grid_col"":4,""grid_row"":4,""introduction_order"":6},{""participant"":""demo"",""phase"":""main"",""block"":1,""trial"":3,""trial_in_block"":3,""image"":""surprise_1.jpg"",""final_img_pos"":""(1048, 624)"",""posX"":1048,""posY"":624,""grid_col"":10,""grid_row"":6,""introduction_order"":7},{""participant"":""demo"",""phase"":""main"",""block"":1,""trial"":3,""trial_in_block"":3,""image"":""happy_2.jpg"",""final_img_pos"":""(1048, 312)"",""posX"":1048,""posY"":312,""grid_col"":10,""grid_row"":3,""introduction_order"":8},{""participant"":""demo"",""phase"":""main"",""block"":1,""trial"":3,""trial_in_block"":3,""image"":""sad_1.jpg"",""final_img_pos"":""(216, 416)"",""posX"":216,""posY"":416,""grid_col"":2,""grid_row"":4,""introduction_order"":9},{""participant"":""demo"",""phase"":""main"",""block"":1,""trial"":3,""trial_in_block"":3,""image"":""happy_1.jpg"",""final_img_pos"":""(944, 312)"",""posX"":944,""posY"":312,""grid_col"":9,""grid_row"":3,""introduction_order"":10},{""participant"":""demo"",""phase"":""main"",""block"":1,""trial"":3,""trial_in_block"":3,""image"":""angry_1.jpg"",""final_img_pos"":""(112, 416)"",""posX"":112,""posY"":416,""grid_col"":1,""grid_row"":4,""introduction_order"":11},{""participant"":""demo"",""phase"":""main"",""block"":1,""trial"":3,""trial_in_block"":3,""image"":""surprise_2.jpg"",""final_img_pos"":""(944, 624)"",""posX"":944,""posY"":624,""grid_col"":9,""grid_row"":6,""introduction_order"":12}]","[{""image_name"":""fearful_2.jpg"",""trial"":3,""block"":1,""phase"":""main"",""grid_col"":1,""grid_row"":1,""posX"":112,""posY"":104,""timestamp"":355395},{""image_name"":""sad_2.jpg"",""trial"":3,""block"":1,""phase"":""main"",""grid_col"":4,""grid_row"":1,""posX"":424,""posY"":104,""timestamp"":357980},{""image_name"":""disgust_2.jpg"",""trial"":3,""block"":1,""phase"":""main"",""grid_col"":7,""grid_row"":1,""posX"":736,""posY"":104,""timestamp"":360464},{""image_name"":""fearful_1.jpg"",""trial"":3,""block"":1,""phase"":""main"",""grid_col"":7,""grid_row"":4,""posX"":736,""posY"":416,""timestamp"":363008},{""image_name"":""angry_2.jpg"",""trial"":3,""block"":1,""phase"":""main"",""grid_col"":3,""grid_row"":4,""posX"":320,""posY"":416,""timestamp"":364800},{""image_name"":""disgust_1.jpg"",""trial"":3,""block"":1,""phase"":""main"",""grid_col"":4,""grid_row"":4,""posX"":424,""posY"":416,""timestamp"":371838},{""image_name"":""surprise_1.jpg"",""trial"":3,""block"":1,""phase"":""main"",""grid_col"":10,""grid_row"":6,""posX"":1048,""posY"":624,""timestamp"":375359},{""image_name"":""surprise_1.jpg"",""trial"":3,""block"":1,""phase"":""main"",""grid_col"":10,""grid_row"":6,""posX"":1048,""posY"":624,""timestamp"":378909},{""image_name"":""happy_2.jpg"",""trial"":3,""block"":1,""phase"":""main"",""grid_col"":10,""grid_row"":3,""posX"":1048,""posY"":312,""timestamp"":382737},{""image_name"":""sad_1.jpg"",""trial"":3,""block"":1,""phase"":""main"",""grid_col"":2,""grid_row"":4,""posX"":216,""posY"":416,""timestamp"":385914},{""image_name"":""happy_1.jpg"",""trial"":3,""block"":1,""phase"":""main"",""grid_col"":9,""grid_row"":3,""posX"":944,""posY"":312,""timestamp"":390108},{""image_name"":""angry_1.jpg"",""trial"":3,""block"":1,""phase"":""main"",""grid_col"":1,""grid_row"":3,""posX"":112,""posY"":312,""timestamp"":392885},{""image_name"":""angry_1.jpg"",""trial"":3,""block"":1,""phase"":""main"",""grid_col"":1,""grid_row"":4,""posX"":112,""posY"":416,""timestamp"":394694},{""image_name"":""surprise_2.jpg"",""trial"":3,""block"":1,""phase"":""main"",""grid_col"":9,""grid_row"":6,""posX"":944,""posY"":624,""timestamp"":398839}]","","",""
"html-button-response","16","2.1.0","405017","plants,animals,emotions","{""plants"":{""block1"":0,""block2"":1},""animals"":{""block1"":0,""block2"":1},""emotions"":{""block1"":0,""block2"":1}}","2","2","","","","","","","","","","","","","","3594","
    <div style=""
      display:flex;
      flex-direction:column;
      align-items:center;
      justify-content:center;
      padding:80px 20px 40px 20px;
      text-align:center;
    "">
      <img src=""stimuli/star.png"" style=""
        width:160px;
        height:160px;
        animation: spinScale 1.5s ease-in-out infinite;
        margin-bottom:30px;
      "">
      <div style=""font-size:28px; font-weight:600;"">
        Great job!
      </div>
    </div>

    <style>
      @keyframes spinScale {
        0%   { transform: scale(1) rotate(0deg); }
        50%  { transform: scale(1.4) rotate(180deg); }
        100% { transform: scale(1) rotate(360deg); }
      }
    </style>
  ","0"
"html-button-response","17","2.1.0","407083","plants,animals,emotions","{""plants"":{""block1"":0,""block2"":1},""animals"":{""block1"":0,""block2"":1},""emotions"":{""block1"":0,""block2"":1}}","2","2","","","","","","","","","","","","","","2065","
      <div style=""font-size:24px; padding:20px;"">
        Block 2 of 2
      </div>
    ","0"
"html-button-response","18","2.1.0","411049","plants,animals,emotions","{""plants"":{""block1"":0,""block2"":1},""animals"":{""block1"":0,""block2"":1},""emotions"":{""block1"":0,""block2"":1}}","2","2","","","","","","","","","","","","","","","",""
"emotion-grid","19","null","440646","plants,animals,emotions","{""plants"":{""block1"":0,""block2"":1},""animals"":{""block1"":0,""block2"":1},""emotions"":{""block1"":0,""block2"":1}}","2","2","","","","","","demo","main","[""stimuli/plants/leaf_2.jpg"",""stimuli/plants/blueberry_2.jpg"",""stimuli/plants/cactus_2.jpg"",""stimuli/plants/peanut_2.jpg"",""stimuli/plants/grass_2.jpg"",""stimuli/plants/cabbage_2.jpg"",""stimuli/plants/cherry_2.jpg"",""stimuli/plants/acorn_2.jpg"",""stimuli/plants/apple_2.jpg"",""stimuli/plants/broccoli_2.jpg"",""stimuli/plants/tree_2.jpg"",""stimuli/plants/flower_2.jpg""]","2","4","1","[{""participant"":""demo"",""phase"":""main"",""block"":2,""trial"":4,""trial_in_block"":1,""image"":""leaf_2.jpg"",""final_img_pos"":""(216, 104)"",""posX"":216,""posY"":104,""grid_col"":2,""grid_row"":1,""introduction_order"":1},{""participant"":""demo"",""phase"":""main"",""block"":2,""trial"":4,""trial_in_block"":1,""image"":""blueberry_2.jpg"",""final_img_pos"":""(528, 520)"",""posX"":528,""posY"":520,""grid_col"":5,""grid_row"":5,""introduction_order"":2},{""participant"":""demo"",""phase"":""main"",""block"":2,""trial"":4,""trial_in_block"":1,""image"":""cactus_2.jpg"",""final_img_pos"":""(736, 208)"",""posX"":736,""posY"":208,""grid_col"":7,""grid_row"":2,""introduction_order"":3},{""participant"":""demo"",""phase"":""main"",""block"":2,""trial"":4,""trial_in_block"":1,""image"":""peanut_2.jpg"",""final_img_pos"":""(840, 416)"",""posX"":840,""posY"":416,""grid_col"":8,""grid_row"":4,""introduction_order"":4},{""participant"":""demo"",""phase"":""main"",""block"":2,""trial"":4,""trial_in_block"":1,""image"":""grass_2.jpg"",""final_img_pos"":""(424, 208)"",""posX"":424,""posY"":208,""grid_col"":4,""grid_row"":2,""introduction_order"":5},{""participant"":""demo"",""phase"":""main"",""block"":2,""trial"":4,""trial_in_block"":1,""image"":""cabbage_2.jpg"",""final_img_pos"":""(112, 416)"",""posX"":112,""posY"":416,""grid_col"":1,""grid_row"":4,""introduction_order"":6},{""participant"":""demo"",""phase"":""main"",""block"":2,""trial"":4,""trial_in_block"":1,""image"":""cherry_2.jpg"",""final_img_pos"":""(840, 624)"",""posX"":840,""posY"":624,""grid_col"":8,""grid_row"":6,""introduction_order"":7},{""participant"":""demo"",""phase"":""main"",""block"":2,""trial"":4,""trial_in_block"":1,""image"":""acorn_2.jpg"",""final_img_pos"":""(1048, 208)"",""posX"":1048,""posY"":208,""grid_col"":10,""grid_row"":2,""introduction_order"":8},{""participant"":""demo"",""phase"":""main"",""block"":2,""trial"":4,""trial_in_block"":1,""image"":""apple_2.jpg"",""final_img_pos"":""(320, 624)"",""posX"":320,""posY"":624,""grid_col"":3,""grid_row"":6,""introduction_order"":9},{""participant"":""demo"",""phase"":""main"",""block"":2,""trial"":4,""trial_in_block"":1,""image"":""broccoli_2.jpg"",""final_img_pos"":""(112, 624)"",""posX"":112,""posY"":624,""grid_col"":1,""grid_row"":6,""introduction_order"":10},{""participant"":""demo"",""phase"":""main"",""block"":2,""trial"":4,""trial_in_block"":1,""image"":""tree_2.jpg"",""final_img_pos"":""(1048, 520)"",""posX"":1048,""posY"":520,""grid_col"":10,""grid_row"":5,""introduction_order"":11},{""participant"":""demo"",""phase"":""main"",""block"":2,""trial"":4,""trial_in_block"":1,""image"":""flower_2.jpg"",""final_img_pos"":""(632, 104)"",""posX"":632,""posY"":104,""grid_col"":6,""grid_row"":1,""introduction_order"":12}]","[{""image_name"":""leaf_2.jpg"",""trial"":4,""block"":2,""phase"":""main"",""grid_col"":2,""grid_row"":1,""posX"":216,""posY"":104,""timestamp"":413723},{""image_name"":""blueberry_2.jpg"",""trial"":4,""block"":2,""phase"":""main"",""grid_col"":5,""grid_row"":5,""posX"":528,""posY"":520,""timestamp"":415483},{""image_name"":""cactus_2.jpg"",""trial"":4,""block"":2,""phase"":""main"",""grid_col"":7,""grid_row"":2,""posX"":736,""posY"":208,""timestamp"":416525.00000000006},{""image_name"":""peanut_2.jpg"",""trial"":4,""block"":2,""phase"":""main"",""grid_col"":8,""grid_row"":4,""posX"":840,""posY"":416,""timestamp"":417517},{""image_name"":""grass_2.jpg"",""trial"":4,""block"":2,""phase"":""main"",""grid_col"":4,""grid_row"":2,""posX"":424,""posY"":208,""timestamp"":418560},{""image_name"":""cabbage_2.jpg"",""trial"":4,""block"":2,""phase"":""main"",""grid_col"":2,""grid_row"":4,""posX"":216,""posY"":416,""timestamp"":419552},{""image_name"":""cherry_2.jpg"",""trial"":4,""block"":2,""phase"":""main"",""grid_col"":8,""grid_row"":6,""posX"":840,""posY"":624,""timestamp"":420561.00000000006},{""image_name"":""acorn_2.jpg"",""trial"":4,""block"":2,""phase"":""main"",""grid_col"":10,""grid_row"":2,""posX"":1048,""posY"":208,""timestamp"":424038},{""image_name"":""apple_2.jpg"",""trial"":4,""block"":2,""phase"":""main"",""grid_col"":3,""grid_row"":6,""posX"":320,""posY"":624,""timestamp"":427598},{""image_name"":""broccoli_2.jpg"",""trial"":4,""block"":2,""phase"":""main"",""grid_col"":7,""grid_row"":6,""posX"":736,""posY"":624,""timestamp"":429350},{""image_name"":""broccoli_2.jpg"",""trial"":4,""block"":2,""phase"":""main"",""grid_col"":1,""grid_row"":6,""posX"":112,""posY"":624,""timestamp"":431468},{""image_name"":""cabbage_2.jpg"",""trial"":4,""block"":2,""phase"":""main"",""grid_col"":1,""grid_row"":4,""posX"":112,""posY"":416,""timestamp"":434419},{""image_name"":""tree_2.jpg"",""trial"":4,""block"":2,""phase"":""main"",""grid_col"":10,""grid_row"":5,""posX"":1048,""posY"":520,""timestamp"":436496},{""image_name"":""flower_2.jpg"",""trial"":4,""block"":2,""phase"":""main"",""grid_col"":7,""grid_row"":1,""posX"":736,""posY"":104,""timestamp"":438881},{""image_name"":""flower_2.jpg"",""trial"":4,""block"":2,""phase"":""main"",""grid_col"":6,""grid_row"":1,""posX"":632,""posY"":104,""timestamp"":439973}]","","",""
"html-button-response","20","2.1.0","442629","plants,animals,emotions","{""plants"":{""block1"":0,""block2"":1},""animals"":{""block1"":0,""block2"":1},""emotions"":{""block1"":0,""block2"":1}}","2","2","","","","","","","","","","","","","","1982","
    <div style=""
      display:flex;
      flex-direction:column;
      align-items:center;
      justify-content:center;
      padding:80px 20px 40px 20px;
      text-align:center;
    "">
      <img src=""stimuli/star.png"" style=""
        width:160px;
        height:160px;
        animation: spinScale 1.5s ease-in-out infinite;
        margin-bottom:30px;
      "">
      <div style=""font-size:28px; font-weight:600;"">
        Great job!
      </div>
    </div>

    <style>
      @keyframes spinScale {
        0%   { transform: scale(1) rotate(0deg); }
        50%  { transform: scale(1.4) rotate(180deg); }
        100% { transform: scale(1) rotate(360deg); }
      }
    </style>
  ","0"
"html-button-response","21","2.1.0","446421","plants,animals,emotions","{""plants"":{""block1"":0,""block2"":1},""animals"":{""block1"":0,""block2"":1},""emotions"":{""block1"":0,""block2"":1}}","2","2","","","","","","","","","","","","","","","",""
"emotion-grid","22","null","489315","plants,animals,emotions","{""plants"":{""block1"":0,""block2"":1},""animals"":{""block1"":0,""block2"":1},""emotions"":{""block1"":0,""block2"":1}}","2","2","","","","","","demo","main","[""stimuli/animals/squirrel_2.jpg"",""stimuli/animals/fox_2.jpg"",""stimuli/animals/sheep_2.jpg"",""stimuli/animals/dolphin_2.jpg"",""stimuli/animals/pigeon_2.jpg"",""stimuli/animals/wolf_2.jpg"",""stimuli/animals/lion_2.jpg"",""stimuli/animals/fish_2.jpg"",""stimuli/animals/butterfly_2.jpg"",""stimuli/animals/ladybug_2.jpg"",""stimuli/animals/peacock_2.jpg"",""stimuli/animals/horse_2.jpg""]","2","5","2","[{""participant"":""demo"",""phase"":""main"",""block"":2,""trial"":5,""trial_in_block"":2,""image"":""squirrel_2.jpg"",""final_img_pos"":""(112, 104)"",""posX"":112,""posY"":104,""grid_col"":1,""grid_row"":1,""introduction_order"":1},{""participant"":""demo"",""phase"":""main"",""block"":2,""trial"":5,""trial_in_block"":2,""image"":""fox_2.jpg"",""final_img_pos"":""(216, 208)"",""posX"":216,""posY"":208,""grid_col"":2,""grid_row"":2,""introduction_order"":2},{""participant"":""demo"",""phase"":""main"",""block"":2,""trial"":5,""trial_in_block"":2,""image"":""sheep_2.jpg"",""final_img_pos"":""(320, 104)"",""posX"":320,""posY"":104,""grid_col"":3,""grid_row"":1,""introduction_order"":3},{""participant"":""demo"",""phase"":""main"",""block"":2,""trial"":5,""trial_in_block"":2,""image"":""dolphin_2.jpg"",""final_img_pos"":""(840, 520)"",""posX"":840,""posY"":520,""grid_col"":8,""grid_row"":5,""introduction_order"":4},{""participant"":""demo"",""phase"":""main"",""block"":2,""trial"":5,""trial_in_block"":2,""image"":""pigeon_2.jpg"",""final_img_pos"":""(528, 104)"",""posX"":528,""posY"":104,""grid_col"":5,""grid_row"":1,""introduction_order"":5},{""participant"":""demo"",""phase"":""main"",""block"":2,""trial"":5,""trial_in_block"":2,""image"":""wolf_2.jpg"",""final_img_pos"":""(320, 624)"",""posX"":320,""posY"":624,""grid_col"":3,""grid_row"":6,""introduction_order"":6},{""participant"":""demo"",""phase"":""main"",""block"":2,""trial"":5,""trial_in_block"":2,""image"":""lion_2.jpg"",""final_img_pos"":""(736, 104)"",""posX"":736,""posY"":104,""grid_col"":7,""grid_row"":1,""introduction_order"":7},{""participant"":""demo"",""phase"":""main"",""block"":2,""trial"":5,""trial_in_block"":2,""image"":""fish_2.jpg"",""final_img_pos"":""(840, 208)"",""posX"":840,""posY"":208,""grid_col"":8,""grid_row"":2,""introduction_order"":8},{""participant"":""demo"",""phase"":""main"",""block"":2,""trial"":5,""trial_in_block"":2,""image"":""butterfly_2.jpg"",""final_img_pos"":""(944, 104)"",""posX"":944,""posY"":104,""grid_col"":9,""grid_row"":1,""introduction_order"":9},{""participant"":""demo"",""phase"":""main"",""block"":2,""trial"":5,""trial_in_block"":2,""image"":""ladybug_2.jpg"",""final_img_pos"":""(632, 520)"",""posX"":632,""posY"":520,""grid_col"":6,""grid_row"":5,""introduction_order"":10},{""participant"":""demo"",""phase"":""main"",""block"":2,""trial"":5,""trial_in_block"":2,""image"":""peacock_2.jpg"",""final_img_pos"":""(112, 416)"",""posX"":112,""posY"":416,""grid_col"":1,""grid_row"":4,""introduction_order"":11},{""participant"":""demo"",""phase"":""main"",""block"":2,""trial"":5,""trial_in_block"":2,""image"":""horse_2.jpg"",""final_img_pos"":""(424, 416)"",""posX"":424,""posY"":416,""grid_col"":4,""grid_row"":4,""introduction_order"":12}]","[{""image_name"":""squirrel_2.jpg"",""trial"":5,""block"":2,""phase"":""main"",""grid_col"":2,""grid_row"":2,""posX"":216,""posY"":208,""timestamp"":448512},{""image_name"":""squirrel_2.jpg"",""trial"":5,""block"":2,""phase"":""main"",""grid_col"":1,""grid_row"":1,""posX"":112,""posY"":104,""timestamp"":450238},{""image_name"":""fox_2.jpg"",""trial"":5,""block"":2,""phase"":""main"",""grid_col"":2,""grid_row"":2,""posX"":216,""posY"":208,""timestamp"":452073.00000000006},{""image_name"":""sheep_2.jpg"",""trial"":5,""block"":2,""phase"":""main"",""grid_col"":3,""grid_row"":1,""posX"":320,""posY"":104,""timestamp"":453698.00000000006},{""image_name"":""dolphin_2.jpg"",""trial"":5,""block"":2,""phase"":""main"",""grid_col"":4,""grid_row"":2,""posX"":424,""posY"":208,""timestamp"":455024},{""image_name"":""pigeon_2.jpg"",""trial"":5,""block"":2,""phase"":""main"",""grid_col"":5,""grid_row"":1,""posX"":528,""posY"":104,""timestamp"":456183},{""image_name"":""wolf_2.jpg"",""trial"":5,""block"":2,""phase"":""main"",""grid_col"":6,""grid_row"":2,""posX"":632,""posY"":208,""timestamp"":457551},{""image_name"":""lion_2.jpg"",""trial"":5,""block"":2,""phase"":""main"",""grid_col"":7,""grid_row"":1,""posX"":736,""posY"":104,""timestamp"":458918},{""image_name"":""fish_2.jpg"",""trial"":5,""block"":2,""phase"":""main"",""grid_col"":8,""grid_row"":2,""posX"":840,""posY"":208,""timestamp"":460403},{""image_name"":""butterfly_2.jpg"",""trial"":5,""block"":2,""phase"":""main"",""grid_col"":9,""grid_row"":1,""posX"":944,""posY"":104,""timestamp"":461787.00000000006},{""image_name"":""ladybug_2.jpg"",""trial"":5,""block"":2,""phase"":""main"",""grid_col"":10,""grid_row"":2,""posX"":1048,""posY"":208,""timestamp"":463221},{""image_name"":""peacock_2.jpg"",""trial"":5,""block"":2,""phase"":""main"",""grid_col"":1,""grid_row"":4,""posX"":112,""posY"":416,""timestamp"":465114.00000000006},{""image_name"":""horse_2.jpg"",""trial"":5,""block"":2,""phase"":""main"",""grid_col"":4,""grid_row"":4,""posX"":424,""posY"":416,""timestamp"":466265},{""image_name"":""dolphin_2.jpg"",""trial"":5,""block"":2,""phase"":""main"",""grid_col"":8,""grid_row"":5,""posX"":840,""posY"":520,""timestamp"":474020},{""image_name"":""wolf_2.jpg"",""trial"":5,""block"":2,""phase"":""main"",""grid_col"":3,""grid_row"":6,""posX"":320,""posY"":624,""timestamp"":476438},{""image_name"":""ladybug_2.jpg"",""trial"":5,""block"":2,""phase"":""main"",""grid_col"":10,""grid_row"":5,""posX"":1048,""posY"":520,""timestamp"":478773},{""image_name"":""ladybug_2.jpg"",""trial"":5,""block"":2,""phase"":""main"",""grid_col"":10,""grid_row"":6,""posX"":1048,""posY"":624,""timestamp"":479932},{""image_name"":""ladybug_2.jpg"",""trial"":5,""block"":2,""phase"":""main"",""grid_col"":6,""grid_row"":5,""posX"":632,""posY"":520,""timestamp"":482333}]","","",""
"html-button-response","23","2.1.0","491191","plants,animals,emotions","{""plants"":{""block1"":0,""block2"":1},""animals"":{""block1"":0,""block2"":1},""emotions"":{""block1"":0,""block2"":1}}","2","2","","","","","","","","","","","","","","1867","
    <div style=""
      display:flex;
      flex-direction:column;
      align-items:center;
      justify-content:center;
      padding:80px 20px 40px 20px;
      text-align:center;
    "">
      <img src=""stimuli/star.png"" style=""
        width:160px;
        height:160px;
        animation: spinScale 1.5s ease-in-out infinite;
        margin-bottom:30px;
      "">
      <div style=""font-size:28px; font-weight:600;"">
        Great job!
      </div>
    </div>

    <style>
      @keyframes spinScale {
        0%   { transform: scale(1) rotate(0deg); }
        50%  { transform: scale(1.4) rotate(180deg); }
        100% { transform: scale(1) rotate(360deg); }
      }
    </style>
  ","0"
"html-button-response","24","2.1.0","498653","plants,animals,emotions","{""plants"":{""block1"":0,""block2"":1},""animals"":{""block1"":0,""block2"":1},""emotions"":{""block1"":0,""block2"":1}}","2","2","","","","","","","","","","","","","","","",""
"emotion-grid","25","null","535958","plants,animals,emotions","{""plants"":{""block1"":0,""block2"":1},""animals"":{""block1"":0,""block2"":1},""emotions"":{""block1"":0,""block2"":1}}","2","2","","","","","","demo","main","[""stimuli/emotions/sad_1.jpg"",""stimuli/emotions/angry_2.jpg"",""stimuli/emotions/disgust_2.jpg"",""stimuli/emotions/angry_1.jpg"",""stimuli/emotions/surprise_1.jpg"",""stimuli/emotions/sad_2.jpg"",""stimuli/emotions/happy_1.jpg"",""stimuli/emotions/fearful_1.jpg"",""stimuli/emotions/fearful_2.jpg"",""stimuli/emotions/surprise_2.jpg"",""stimuli/emotions/disgust_1.jpg"",""stimuli/emotions/happy_2.jpg""]","2","6","3","[{""participant"":""demo"",""phase"":""main"",""block"":2,""trial"":6,""trial_in_block"":3,""image"":""sad_1.jpg"",""final_img_pos"":""(112, 104)"",""posX"":112,""posY"":104,""grid_col"":1,""grid_row"":1,""introduction_order"":1},{""participant"":""demo"",""phase"":""main"",""block"":2,""trial"":6,""trial_in_block"":3,""image"":""angry_2.jpg"",""final_img_pos"":""(216, 104)"",""posX"":216,""posY"":104,""grid_col"":2,""grid_row"":1,""introduction_order"":2},{""participant"":""demo"",""phase"":""main"",""block"":2,""trial"":6,""trial_in_block"":3,""image"":""disgust_2.jpg"",""final_img_pos"":""(320, 104)"",""posX"":320,""posY"":104,""grid_col"":3,""grid_row"":1,""introduction_order"":3},{""participant"":""demo"",""phase"":""main"",""block"":2,""trial"":6,""trial_in_block"":3,""image"":""angry_1.jpg"",""final_img_pos"":""(424, 104)"",""posX"":424,""posY"":104,""grid_col"":4,""grid_row"":1,""introduction_order"":4},{""participant"":""demo"",""phase"":""main"",""block"":2,""trial"":6,""trial_in_block"":3,""image"":""surprise_1.jpg"",""final_img_pos"":""(1048, 624)"",""posX"":1048,""posY"":624,""grid_col"":10,""grid_row"":6,""introduction_order"":5},{""participant"":""demo"",""phase"":""main"",""block"":2,""trial"":6,""trial_in_block"":3,""image"":""sad_2.jpg"",""final_img_pos"":""(424, 416)"",""posX"":424,""posY"":416,""grid_col"":4,""grid_row"":4,""introduction_order"":6},{""participant"":""demo"",""phase"":""main"",""block"":2,""trial"":6,""trial_in_block"":3,""image"":""happy_1.jpg"",""final_img_pos"":""(1048, 208)"",""posX"":1048,""posY"":208,""grid_col"":10,""grid_row"":2,""introduction_order"":7},{""participant"":""demo"",""phase"":""main"",""block"":2,""trial"":6,""trial_in_block"":3,""image"":""fearful_1.jpg"",""final_img_pos"":""(528, 624)"",""posX"":528,""posY"":624,""grid_col"":5,""grid_row"":6,""introduction_order"":8},{""participant"":""demo"",""phase"":""main"",""block"":2,""trial"":6,""trial_in_block"":3,""image"":""fearful_2.jpg"",""final_img_pos"":""(632, 624)"",""posX"":632,""posY"":624,""grid_col"":6,""grid_row"":6,""introduction_order"":9},{""participant"":""demo"",""phase"":""main"",""block"":2,""trial"":6,""trial_in_block"":3,""image"":""surprise_2.jpg"",""final_img_pos"":""(944, 624)"",""posX"":944,""posY"":624,""grid_col"":9,""grid_row"":6,""introduction_order"":10},{""participant"":""demo"",""phase"":""main"",""block"":2,""trial"":6,""trial_in_block"":3,""image"":""disgust_1.jpg"",""final_img_pos"":""(528, 104)"",""posX"":528,""posY"":104,""grid_col"":5,""grid_row"":1,""introduction_order"":11},{""participant"":""demo"",""phase"":""main"",""block"":2,""trial"":6,""trial_in_block"":3,""image"":""happy_2.jpg"",""final_img_pos"":""(944, 208)"",""posX"":944,""posY"":208,""grid_col"":9,""grid_row"":2,""introduction_order"":12}]","[{""image_name"":""sad_1.jpg"",""trial"":6,""block"":2,""phase"":""main"",""grid_col"":1,""grid_row"":1,""posX"":112,""posY"":104,""timestamp"":501454},{""image_name"":""angry_2.jpg"",""trial"":6,""block"":2,""phase"":""main"",""grid_col"":2,""grid_row"":1,""posX"":216,""posY"":104,""timestamp"":503780.00000000006},{""image_name"":""disgust_2.jpg"",""trial"":6,""block"":2,""phase"":""main"",""grid_col"":3,""grid_row"":1,""posX"":320,""posY"":104,""timestamp"":507132},{""image_name"":""angry_1.jpg"",""trial"":6,""block"":2,""phase"":""main"",""grid_col"":4,""grid_row"":1,""posX"":424,""posY"":104,""timestamp"":509417.00000000006},{""image_name"":""surprise_1.jpg"",""trial"":6,""block"":2,""phase"":""main"",""grid_col"":10,""grid_row"":6,""posX"":1048,""posY"":624,""timestamp"":511310},{""image_name"":""sad_2.jpg"",""trial"":6,""block"":2,""phase"":""main"",""grid_col"":4,""grid_row"":4,""posX"":424,""posY"":416,""timestamp"":514028},{""image_name"":""happy_1.jpg"",""trial"":6,""block"":2,""phase"":""main"",""grid_col"":10,""grid_row"":2,""posX"":1048,""posY"":208,""timestamp"":516380},{""image_name"":""fearful_1.jpg"",""trial"":6,""block"":2,""phase"":""main"",""grid_col"":5,""grid_row"":6,""posX"":528,""posY"":624,""timestamp"":519315.00000000006},{""image_name"":""fearful_2.jpg"",""trial"":6,""block"":2,""phase"":""main"",""grid_col"":6,""grid_row"":6,""posX"":632,""posY"":624,""timestamp"":524161.00000000006},{""image_name"":""surprise_2.jpg"",""trial"":6,""block"":2,""phase"":""main"",""grid_col"":8,""grid_row"":6,""posX"":840,""posY"":624,""timestamp"":527854},{""image_name"":""surprise_2.jpg"",""trial"":6,""block"":2,""phase"":""main"",""grid_col"":9,""grid_row"":6,""posX"":944,""posY"":624,""timestamp"":529371},{""image_name"":""disgust_1.jpg"",""trial"":6,""block"":2,""phase"":""main"",""grid_col"":5,""grid_row"":1,""posX"":528,""posY"":104,""timestamp"":530497},{""image_name"":""happy_2.jpg"",""trial"":6,""block"":2,""phase"":""main"",""grid_col"":9,""grid_row"":2,""posX"":944,""posY"":208,""timestamp"":534274}]","","",""
"html-button-response","26","2.1.0","537475","plants,animals,emotions","{""plants"":{""block1"":0,""block2"":1},""animals"":{""block1"":0,""block2"":1},""emotions"":{""block1"":0,""block2"":1}}","2","2","","","","","","","","","","","","","","1515","
    <div style=""
      display:flex;
      flex-direction:column;
      align-items:center;
      justify-content:center;
      padding:80px 20px 40px 20px;
      text-align:center;
    "">
      <img src=""stimuli/star.png"" style=""
        width:160px;
        height:160px;
        animation: spinScale 1.5s ease-in-out infinite;
        margin-bottom:30px;
      "">
      <div style=""font-size:28px; font-weight:600;"">
        Great job!
      </div>
    </div>

    <style>
      @keyframes spinScale {
        0%   { transform: scale(1) rotate(0deg); }
        50%  { transform: scale(1.4) rotate(180deg); }
        100% { transform: scale(1) rotate(360deg); }
      }
    </style>
  ","0"
