"trial_type","trial_index","plugin_version","time_elapsed","category_order","set_assignment","participant_id","version","success","timeout","failed_images","failed_audio","failed_video","participant","phase","image_order","block","trial","trial_in_block","placements","move_log","rt","stimulus","response"
"html-button-response","0","2.1.0","3145764","plants,animals,emotions","{""plants"":{""block1"":1,""block2"":0},""animals"":{""block1"":0,""block2"":1},""emotions"":{""block1"":0,""block2"":1}}","3","3","","","","","","","","","","","","","","","",""
"preload","1","2.1.0","3160968","plants,animals,emotions","{""plants"":{""block1"":1,""block2"":0},""animals"":{""block1"":0,""block2"":1},""emotions"":{""block1"":0,""block2"":1}}","3","3","true","false","[]","[]","[]","","","","","","","","","","",""
"html-button-response","2","2.1.0","3235628","plants,animals,emotions","{""plants"":{""block1"":1,""block2"":0},""animals"":{""block1"":0,""block2"":1},""emotions"":{""block1"":0,""block2"":1}}","3","3","","","","","","","","","","","","","","","",""
"html-button-response","3","2.1.0","3241529","plants,animals,emotions","{""plants"":{""block1"":1,""block2"":0},""animals"":{""block1"":0,""block2"":1},""emotions"":{""block1"":0,""block2"":1}}","3","3","","","","","","","","","","","","","","","",""
"emotion-grid","4","null","3276018","plants,animals,emotions","{""plants"":{""block1"":1,""block2"":0},""animals"":{""block1"":0,""block2"":1},""emotions"":{""block1"":0,""block2"":1}}","3","3","","","","","","demo","practice","","null","-1","-1","[{""participant"":""demo"",""phase"":""practice"",""block"":null,""trial"":-1,""trial_in_block"":-1,""image"":""pizza_1.jpg"",""final_img_pos"":""(320, 312)"",""posX"":320,""posY"":312,""grid_col"":3,""grid_row"":3,""introduction_order"":1},{""participant"":""demo"",""phase"":""practice"",""block"":null,""trial"":-1,""trial_in_block"":-1,""image"":""pizza_2.jpg"",""final_img_pos"":""(424, 312)"",""posX"":424,""posY"":312,""grid_col"":4,""grid_row"":3,""introduction_order"":2},{""participant"":""demo"",""phase"":""practice"",""block"":null,""trial"":-1,""trial_in_block"":-1,""image"":""french_fries_1.jpg"",""final_img_pos"":""(840, 520)"",""posX"":840,""posY"":520,""grid_col"":8,""grid_row"":5,""introduction_order"":3},{""participant"":""demo"",""phase"":""practice"",""block"":null,""trial"":-1,""trial_in_block"":-1,""image"":""french_fries_2.jpg"",""final_img_pos"":""(736, 520)"",""posX"":736,""posY"":520,""grid_col"":7,""grid_row"":5,""introduction_order"":4},{""participant"":""demo"",""phase"":""practice"",""block"":null,""trial"":-1,""trial_in_block"":-1,""image"":""snowman_1.jpg"",""final_img_pos"":""(840, 104)"",""posX"":840,""posY"":104,""grid_col"":8,""grid_row"":1,""introduction_order"":5}]","[{""image_name"":""pizza_1.jpg"",""trial"":-1,""block"":null,""phase"":""practice"",""grid_col"":3,""grid_row"":3,""posX"":320,""posY"":312,""timestamp"":297553},{""image_name"":""pizza_2.jpg"",""trial"":-1,""block"":null,""phase"":""practice"",""grid_col"":4,""grid_row"":3,""posX"":424,""posY"":312,""timestamp"":310711},{""image_name"":""french_fries_1.jpg"",""trial"":-1,""block"":null,""phase"":""practice"",""grid_col"":8,""grid_row"":5,""posX"":840,""posY"":520,""timestamp"":313954},{""image_name"":""french_fries_2.jpg"",""trial"":-1,""block"":null,""phase"":""practice"",""grid_col"":7,""grid_row"":5,""posX"":736,""posY"":520,""timestamp"":315880},{""image_name"":""snowman_1.jpg"",""trial"":-1,""block"":null,""phase"":""practice"",""grid_col"":8,""grid_row"":1,""posX"":840,""posY"":104,""timestamp"":318023}]","","",""
"html-button-response","5","2.1.0","3280467","plants,animals,emotions","{""plants"":{""block1"":1,""block2"":0},""animals"":{""block1"":0,""block2"":1},""emotions"":{""block1"":0,""block2"":1}}","3","3","","","","","","","","","","","","","","4446","
      <div style=""
        display:flex;
        flex-direction:column;
        align-items:center;
        justify-content:center;
        padding:80px 20px 40px 20px;
        text-align:center;
      "">
        <img src=""stimuli/fireworks.gif"" style=""
          width:300px;
          height:200px;
          animation: spinScale 1.5s ease-in-out infinite;
          margin-bottom:30px;
        "">
        <div style=""font-size:28px; font-weight:600;"">
          Great job!
        </div>
      </div>


    ","0"
"html-button-response","6","2.1.0","3289144","plants,animals,emotions","{""plants"":{""block1"":1,""block2"":0},""animals"":{""block1"":0,""block2"":1},""emotions"":{""block1"":0,""block2"":1}}","3","3","","","","","","","","","","","","","","","",""
"html-button-response","7","2.1.0","3290033","plants,animals,emotions","{""plants"":{""block1"":1,""block2"":0},""animals"":{""block1"":0,""block2"":1},""emotions"":{""block1"":0,""block2"":1}}","3","3","","","","","","","","","","","","","","887","
      <div style=""font-size:24px; padding:20px;"">
        Block 1 of 2
      </div>
    ","0"
"html-button-response","8","2.1.0","3292406","plants,animals,emotions","{""plants"":{""block1"":1,""block2"":0},""animals"":{""block1"":0,""block2"":1},""emotions"":{""block1"":0,""block2"":1}}","3","3","","","","","","","","","","","","","","","",""
"emotion-grid","9","null","3344836","plants,animals,emotions","{""plants"":{""block1"":1,""block2"":0},""animals"":{""block1"":0,""block2"":1},""emotions"":{""block1"":0,""block2"":1}}","3","3","","","","","","demo","main","[""stimuli/plants/cabbage_2.jpg"",""stimuli/plants/grass_2.jpg"",""stimuli/plants/apple_2.jpg"",""stimuli/plants/peanut_2.jpg"",""stimuli/plants/acorn_2.jpg"",""stimuli/plants/broccoli_2.jpg"",""stimuli/plants/blueberry_2.jpg"",""stimuli/plants/cherry_2.jpg"",""stimuli/plants/tree_2.jpg"",""stimuli/plants/flower_2.jpg"",""stimuli/plants/cactus_2.jpg"",""stimuli/plants/leaf_2.jpg""]","1","1","1","[{""participant"":""demo"",""phase"":""main"",""block"":1,""trial"":1,""trial_in_block"":1,""image"":""cabbage_2.jpg"",""final_img_pos"":""(424, 312)"",""posX"":424,""posY"":312,""grid_col"":4,""grid_row"":3,""introduction_order"":1},{""participant"":""demo"",""phase"":""main"",""block"":1,""trial"":1,""trial_in_block"":1,""image"":""grass_2.jpg"",""final_img_pos"":""(736, 104)"",""posX"":736,""posY"":104,""grid_col"":7,""grid_row"":1,""introduction_order"":2},{""participant"":""demo"",""phase"":""main"",""block"":1,""trial"":1,""trial_in_block"":1,""image"":""apple_2.jpg"",""final_img_pos"":""(840, 416)"",""posX"":840,""posY"":416,""grid_col"":8,""grid_row"":4,""introduction_order"":3},{""participant"":""demo"",""phase"":""main"",""block"":1,""trial"":1,""trial_in_block"":1,""image"":""peanut_2.jpg"",""final_img_pos"":""(424, 520)"",""posX"":424,""posY"":520,""grid_col"":4,""grid_row"":5,""introduction_order"":4},{""participant"":""demo"",""phase"":""main"",""block"":1,""trial"":1,""trial_in_block"":1,""image"":""acorn_2.jpg"",""final_img_pos"":""(1048, 104)"",""posX"":1048,""posY"":104,""grid_col"":10,""grid_row"":1,""introduction_order"":5},{""participant"":""demo"",""phase"":""main"",""block"":1,""trial"":1,""trial_in_block"":1,""image"":""broccoli_2.jpg"",""final_img_pos"":""(840, 624)"",""posX"":840,""posY"":624,""grid_col"":8,""grid_row"":6,""introduction_order"":6},{""participant"":""demo"",""phase"":""main"",""block"":1,""trial"":1,""trial_in_block"":1,""image"":""blueberry_2.jpg"",""final_img_pos"":""(320, 104)"",""posX"":320,""posY"":104,""grid_col"":3,""grid_row"":1,""introduction_order"":7},{""participant"":""demo"",""phase"":""main"",""block"":1,""trial"":1,""trial_in_block"":1,""image"":""cherry_2.jpg"",""final_img_pos"":""(944, 416)"",""posX"":944,""posY"":416,""grid_col"":9,""grid_row"":4,""introduction_order"":8},{""participant"":""demo"",""phase"":""main"",""block"":1,""trial"":1,""trial_in_block"":1,""image"":""tree_2.jpg"",""final_img_pos"":""(632, 104)"",""posX"":632,""posY"":104,""grid_col"":6,""grid_row"":1,""introduction_order"":9},{""participant"":""demo"",""phase"":""main"",""block"":1,""trial"":1,""trial_in_block"":1,""image"":""flower_2.jpg"",""final_img_pos"":""(112, 520)"",""posX"":112,""posY"":520,""grid_col"":1,""grid_row"":5,""introduction_order"":10},{""participant"":""demo"",""phase"":""main"",""block"":1,""trial"":1,""trial_in_block"":1,""image"":""cactus_2.jpg"",""final_img_pos"":""(112, 312)"",""posX"":112,""posY"":312,""grid_col"":1,""grid_row"":3,""introduction_order"":11},{""participant"":""demo"",""phase"":""main"",""block"":1,""trial"":1,""trial_in_block"":1,""image"":""leaf_2.jpg"",""final_img_pos"":""(528, 104)"",""posX"":528,""posY"":104,""grid_col"":5,""grid_row"":1,""introduction_order"":12}]","[{""image_name"":""cabbage_2.jpg"",""trial"":1,""block"":1,""phase"":""main"",""grid_col"":4,""grid_row"":3,""posX"":424,""posY"":312,""timestamp"":339536},{""image_name"":""grass_2.jpg"",""trial"":1,""block"":1,""phase"":""main"",""grid_col"":7,""grid_row"":1,""posX"":736,""posY"":104,""timestamp"":343047},{""image_name"":""apple_2.jpg"",""trial"":1,""block"":1,""phase"":""main"",""grid_col"":8,""grid_row"":4,""posX"":840,""posY"":416,""timestamp"":346699},{""image_name"":""peanut_2.jpg"",""trial"":1,""block"":1,""phase"":""main"",""grid_col"":4,""grid_row"":5,""posX"":424,""posY"":520,""timestamp"":349543},{""image_name"":""acorn_2.jpg"",""trial"":1,""block"":1,""phase"":""main"",""grid_col"":10,""grid_row"":1,""posX"":1048,""posY"":104,""timestamp"":354595},{""image_name"":""broccoli_2.jpg"",""trial"":1,""block"":1,""phase"":""main"",""grid_col"":8,""grid_row"":6,""posX"":840,""posY"":624,""timestamp"":359608},{""image_name"":""blueberry_2.jpg"",""trial"":1,""block"":1,""phase"":""main"",""grid_col"":3,""grid_row"":1,""posX"":320,""posY"":104,""timestamp"":362778},{""image_name"":""cherry_2.jpg"",""trial"":1,""block"":1,""phase"":""main"",""grid_col"":9,""grid_row"":4,""posX"":944,""posY"":416,""timestamp"":365419},{""image_name"":""tree_2.jpg"",""trial"":1,""block"":1,""phase"":""main"",""grid_col"":6,""grid_row"":1,""posX"":632,""posY"":104,""timestamp"":367921},{""image_name"":""flower_2.jpg"",""trial"":1,""block"":1,""phase"":""main"",""grid_col"":1,""grid_row"":5,""posX"":112,""posY"":520,""timestamp"":371715.00000000006},{""image_name"":""cactus_2.jpg"",""trial"":1,""block"":1,""phase"":""main"",""grid_col"":1,""grid_row"":3,""posX"":112,""posY"":312,""timestamp"":378544},{""image_name"":""leaf_2.jpg"",""trial"":1,""block"":1,""phase"":""main"",""grid_col"":5,""grid_row"":1,""posX"":528,""posY"":104,""timestamp"":383097}]","","",""
"html-button-response","10","2.1.0","3348802","plants,animals,emotions","{""plants"":{""block1"":1,""block2"":0},""animals"":{""block1"":0,""block2"":1},""emotions"":{""block1"":0,""block2"":1}}","3","3","","","","","","","","","","","","","","3963","
    <div style=""
      display:flex;
      flex-direction:column;
      align-items:center;
      justify-content:center;
      padding:80px 20px 40px 20px;
      text-align:center;
    "">
      <img src=""stimuli/star.png"" style=""
        width:160px;
        height:160px;
        animation: spinScale 1.5s ease-in-out infinite;
        margin-bottom:30px;
      "">
      <div style=""font-size:28px; font-weight:600;"">
        Great job!
      </div>
    </div>

    <style>
      @keyframes spinScale {
        0%   { transform: scale(1) rotate(0deg); }
        50%  { transform: scale(1.4) rotate(180deg); }
        100% { transform: scale(1) rotate(360deg); }
      }
    </style>
  ","0"
"html-button-response","11","2.1.0","3352052","plants,animals,emotions","{""plants"":{""block1"":1,""block2"":0},""animals"":{""block1"":0,""block2"":1},""emotions"":{""block1"":0,""block2"":1}}","3","3","","","","","","","","","","","","","","","",""
"emotion-grid","12","null","3386325","plants,animals,emotions","{""plants"":{""block1"":1,""block2"":0},""animals"":{""block1"":0,""block2"":1},""emotions"":{""block1"":0,""block2"":1}}","3","3","","","","","","demo","main","[""stimuli/animals/butterfly_1.jpg"",""stimuli/animals/sheep_1.jpg"",""stimuli/animals/horse_1.jpg"",""stimuli/animals/lion_1.jpg"",""stimuli/animals/ladybug_1.jpg"",""stimuli/animals/dolphin_1.jpg"",""stimuli/animals/squirrel_1.jpg"",""stimuli/animals/pigeon_1.jpg"",""stimuli/animals/fish_1.jpg"",""stimuli/animals/wolf_1.jpg"",""stimuli/animals/fox_1.jpg"",""stimuli/animals/peacock_1.jpg""]","1","2","2","[{""participant"":""demo"",""phase"":""main"",""block"":1,""trial"":2,""trial_in_block"":2,""image"":""butterfly_1.jpg"",""final_img_pos"":""(424, 312)"",""posX"":424,""posY"":312,""grid_col"":4,""grid_row"":3,""introduction_order"":1},{""participant"":""demo"",""phase"":""main"",""block"":1,""trial"":2,""trial_in_block"":2,""image"":""sheep_1.jpg"",""final_img_pos"":""(736, 104)"",""posX"":736,""posY"":104,""grid_col"":7,""grid_row"":1,""introduction_order"":2},{""participant"":""demo"",""phase"":""main"",""block"":1,""trial"":2,""trial_in_block"":2,""image"":""horse_1.jpg"",""final_img_pos"":""(1048, 416)"",""posX"":1048,""posY"":416,""grid_col"":10,""grid_row"":4,""introduction_order"":3},{""participant"":""demo"",""phase"":""main"",""block"":1,""trial"":2,""trial_in_block"":2,""image"":""lion_1.jpg"",""final_img_pos"":""(216, 208)"",""posX"":216,""posY"":208,""grid_col"":2,""grid_row"":2,""introduction_order"":4},{""participant"":""demo"",""phase"":""main"",""block"":1,""trial"":2,""trial_in_block"":2,""image"":""ladybug_1.jpg"",""final_img_pos"":""(528, 520)"",""posX"":528,""posY"":520,""grid_col"":5,""grid_row"":5,""introduction_order"":5},{""participant"":""demo"",""phase"":""main"",""block"":1,""trial"":2,""trial_in_block"":2,""image"":""dolphin_1.jpg"",""final_img_pos"":""(1048, 104)"",""posX"":1048,""posY"":104,""grid_col"":10,""grid_row"":1,""introduction_order"":6},{""participant"":""demo"",""phase"":""main"",""block"":1,""trial"":2,""trial_in_block"":2,""image"":""squirrel_1.jpg"",""final_img_pos"":""(112, 624)"",""posX"":112,""posY"":624,""grid_col"":1,""grid_row"":6,""introduction_order"":7},{""participant"":""demo"",""phase"":""main"",""block"":1,""trial"":2,""trial_in_block"":2,""image"":""pigeon_1.jpg"",""final_img_pos"":""(840, 624)"",""posX"":840,""posY"":624,""grid_col"":8,""grid_row"":6,""introduction_order"":8},{""participant"":""demo"",""phase"":""main"",""block"":1,""trial"":2,""trial_in_block"":2,""image"":""fish_1.jpg"",""final_img_pos"":""(528, 104)"",""posX"":528,""posY"":104,""grid_col"":5,""grid_row"":1,""introduction_order"":9},{""participant"":""demo"",""phase"":""main"",""block"":1,""trial"":2,""trial_in_block"":2,""image"":""wolf_1.jpg"",""final_img_pos"":""(736, 312)"",""posX"":736,""posY"":312,""grid_col"":7,""grid_row"":3,""introduction_order"":10},{""participant"":""demo"",""phase"":""main"",""block"":1,""trial"":2,""trial_in_block"":2,""image"":""fox_1.jpg"",""final_img_pos"":""(840, 312)"",""posX"":840,""posY"":312,""grid_col"":8,""grid_row"":3,""introduction_order"":11},{""participant"":""demo"",""phase"":""main"",""block"":1,""trial"":2,""trial_in_block"":2,""image"":""peacock_1.jpg"",""final_img_pos"":""(944, 624)"",""posX"":944,""posY"":624,""grid_col"":9,""grid_row"":6,""introduction_order"":12}]","[{""image_name"":""butterfly_1.jpg"",""trial"":2,""block"":1,""phase"":""main"",""grid_col"":4,""grid_row"":3,""posX"":424,""posY"":312,""timestamp"":398733},{""image_name"":""sheep_1.jpg"",""trial"":2,""block"":1,""phase"":""main"",""grid_col"":7,""grid_row"":1,""posX"":736,""posY"":104,""timestamp"":400425},{""image_name"":""horse_1.jpg"",""trial"":2,""block"":1,""phase"":""main"",""grid_col"":8,""grid_row"":5,""posX"":840,""posY"":520,""timestamp"":402401},{""image_name"":""lion_1.jpg"",""trial"":2,""block"":1,""phase"":""main"",""grid_col"":2,""grid_row"":2,""posX"":216,""posY"":208,""timestamp"":404127},{""image_name"":""horse_1.jpg"",""trial"":2,""block"":1,""phase"":""main"",""grid_col"":10,""grid_row"":4,""posX"":1048,""posY"":416,""timestamp"":408121},{""image_name"":""ladybug_1.jpg"",""trial"":2,""block"":1,""phase"":""main"",""grid_col"":5,""grid_row"":5,""posX"":528,""posY"":520,""timestamp"":410787.00000000006},{""image_name"":""dolphin_1.jpg"",""trial"":2,""block"":1,""phase"":""main"",""grid_col"":10,""grid_row"":1,""posX"":1048,""posY"":104,""timestamp"":413091},{""image_name"":""squirrel_1.jpg"",""trial"":2,""block"":1,""phase"":""main"",""grid_col"":1,""grid_row"":6,""posX"":112,""posY"":624,""timestamp"":414867},{""image_name"":""pigeon_1.jpg"",""trial"":2,""block"":1,""phase"":""main"",""grid_col"":8,""grid_row"":6,""posX"":840,""posY"":624,""timestamp"":417169},{""image_name"":""fish_1.jpg"",""trial"":2,""block"":1,""phase"":""main"",""grid_col"":5,""grid_row"":1,""posX"":528,""posY"":104,""timestamp"":419395},{""image_name"":""wolf_1.jpg"",""trial"":2,""block"":1,""phase"":""main"",""grid_col"":7,""grid_row"":3,""posX"":736,""posY"":312,""timestamp"":421571},{""image_name"":""fox_1.jpg"",""trial"":2,""block"":1,""phase"":""main"",""grid_col"":8,""grid_row"":3,""posX"":840,""posY"":312,""timestamp"":422997},{""image_name"":""peacock_1.jpg"",""trial"":2,""block"":1,""phase"":""main"",""grid_col"":9,""grid_row"":6,""posX"":944,""posY"":624,""timestamp"":428868}]","","",""
"html-button-response","13","2.1.0","3389643","plants,animals,emotions","{""plants"":{""block1"":1,""block2"":0},""animals"":{""block1"":0,""block2"":1},""emotions"":{""block1"":0,""block2"":1}}","3","3","","","","","","","","","","","","","","3317","
    <div style=""
      display:flex;
      flex-direction:column;
      align-items:center;
      justify-content:center;
      padding:80px 20px 40px 20px;
      text-align:center;
    "">
      <img src=""stimuli/star.png"" style=""
        width:160px;
        height:160px;
        animation: spinScale 1.5s ease-in-out infinite;
        margin-bottom:30px;
      "">
      <div style=""font-size:28px; font-weight:600;"">
        Great job!
      </div>
    </div>

    <style>
      @keyframes spinScale {
        0%   { transform: scale(1) rotate(0deg); }
        50%  { transform: scale(1.4) rotate(180deg); }
        100% { transform: scale(1) rotate(360deg); }
      }
    </style>
  ","0"
"html-button-response","14","2.1.0","3399415","plants,animals,emotions","{""plants"":{""block1"":1,""block2"":0},""animals"":{""block1"":0,""block2"":1},""emotions"":{""block1"":0,""block2"":1}}","3","3","","","","","","","","","","","","","","","",""
"emotion-grid","15","null","3435463","plants,animals,emotions","{""plants"":{""block1"":1,""block2"":0},""animals"":{""block1"":0,""block2"":1},""emotions"":{""block1"":0,""block2"":1}}","3","3","","","","","","demo","main","[""stimuli/emotions/fearful_1.jpg"",""stimuli/emotions/disgust_1.jpg"",""stimuli/emotions/fearful_2.jpg"",""stimuli/emotions/sad_1.jpg"",""stimuli/emotions/angry_2.jpg"",""stimuli/emotions/happy_1.jpg"",""stimuli/emotions/disgust_2.jpg"",""stimuli/emotions/surprise_1.jpg"",""stimuli/emotions/surprise_2.jpg"",""stimuli/emotions/happy_2.jpg"",""stimuli/emotions/sad_2.jpg"",""stimuli/emotions/angry_1.jpg""]","1","3","3","[{""participant"":""demo"",""phase"":""main"",""block"":1,""trial"":3,""trial_in_block"":3,""image"":""fearful_1.jpg"",""final_img_pos"":""(424, 312)"",""posX"":424,""posY"":312,""grid_col"":4,""grid_row"":3,""introduction_order"":1},{""participant"":""demo"",""phase"":""main"",""block"":1,""trial"":3,""trial_in_block"":3,""image"":""disgust_1.jpg"",""final_img_pos"":""(736, 208)"",""posX"":736,""posY"":208,""grid_col"":7,""grid_row"":2,""introduction_order"":2},{""participant"":""demo"",""phase"":""main"",""block"":1,""trial"":3,""trial_in_block"":3,""image"":""fearful_2.jpg"",""final_img_pos"":""(528, 312)"",""posX"":528,""posY"":312,""grid_col"":5,""grid_row"":3,""introduction_order"":3},{""participant"":""demo"",""phase"":""main"",""block"":1,""trial"":3,""trial_in_block"":3,""image"":""sad_1.jpg"",""final_img_pos"":""(736, 416)"",""posX"":736,""posY"":416,""grid_col"":7,""grid_row"":4,""introduction_order"":4},{""participant"":""demo"",""phase"":""main"",""block"":1,""trial"":3,""trial_in_block"":3,""image"":""angry_2.jpg"",""final_img_pos"":""(736, 312)"",""posX"":736,""posY"":312,""grid_col"":7,""grid_row"":3,""introduction_order"":5},{""participant"":""demo"",""phase"":""main"",""block"":1,""trial"":3,""trial_in_block"":3,""image"":""happy_1.jpg"",""final_img_pos"":""(528, 520)"",""posX"":528,""posY"":520,""grid_col"":5,""grid_row"":5,""introduction_order"":6},{""participant"":""demo"",""phase"":""main"",""block"":1,""trial"":3,""trial_in_block"":3,""image"":""disgust_2.jpg"",""final_img_pos"":""(736, 520)"",""posX"":736,""posY"":520,""grid_col"":7,""grid_row"":5,""introduction_order"":7},{""participant"":""demo"",""phase"":""main"",""block"":1,""trial"":3,""trial_in_block"":3,""image"":""surprise_1.jpg"",""final_img_pos"":""(320, 312)"",""posX"":320,""posY"":312,""grid_col"":3,""grid_row"":3,""introduction_order"":8},{""participant"":""demo"",""phase"":""main"",""block"":1,""trial"":3,""trial_in_block"":3,""image"":""surprise_2.jpg"",""final_img_pos"":""(216, 312)"",""posX"":216,""posY"":312,""grid_col"":2,""grid_row"":3,""introduction_order"":9},{""participant"":""demo"",""phase"":""main"",""block"":1,""trial"":3,""trial_in_block"":3,""image"":""happy_2.jpg"",""final_img_pos"":""(424, 520)"",""posX"":424,""posY"":520,""grid_col"":4,""grid_row"":5,""introduction_order"":10},{""participant"":""demo"",""phase"":""main"",""block"":1,""trial"":3,""trial_in_block"":3,""image"":""sad_2.jpg"",""final_img_pos"":""(528, 104)"",""posX"":528,""posY"":104,""grid_col"":5,""grid_row"":1,""introduction_order"":11},{""participant"":""demo"",""phase"":""main"",""block"":1,""trial"":3,""trial_in_block"":3,""image"":""angry_1.jpg"",""final_img_pos"":""(736, 624)"",""posX"":736,""posY"":624,""grid_col"":7,""grid_row"":6,""introduction_order"":12}]","[{""image_name"":""fearful_1.jpg"",""trial"":3,""block"":1,""phase"":""main"",""grid_col"":4,""grid_row"":3,""posX"":424,""posY"":312,""timestamp"":445970},{""image_name"":""disgust_1.jpg"",""trial"":3,""block"":1,""phase"":""main"",""grid_col"":7,""grid_row"":2,""posX"":736,""posY"":208,""timestamp"":447679.00000000006},{""image_name"":""fearful_2.jpg"",""trial"":3,""block"":1,""phase"":""main"",""grid_col"":5,""grid_row"":3,""posX"":528,""posY"":312,""timestamp"":450531},{""image_name"":""sad_1.jpg"",""trial"":3,""block"":1,""phase"":""main"",""grid_col"":7,""grid_row"":4,""posX"":736,""posY"":416,""timestamp"":453542.00000000006},{""image_name"":""angry_2.jpg"",""trial"":3,""block"":1,""phase"":""main"",""grid_col"":7,""grid_row"":3,""posX"":736,""posY"":312,""timestamp"":458888.00000000006},{""image_name"":""happy_1.jpg"",""trial"":3,""block"":1,""phase"":""main"",""grid_col"":5,""grid_row"":5,""posX"":528,""posY"":520,""timestamp"":462272},{""image_name"":""disgust_2.jpg"",""trial"":3,""block"":1,""phase"":""main"",""grid_col"":7,""grid_row"":5,""posX"":736,""posY"":520,""timestamp"":464434},{""image_name"":""surprise_1.jpg"",""trial"":3,""block"":1,""phase"":""main"",""grid_col"":3,""grid_row"":3,""posX"":320,""posY"":312,""timestamp"":468026},{""image_name"":""surprise_2.jpg"",""trial"":3,""block"":1,""phase"":""main"",""grid_col"":2,""grid_row"":3,""posX"":216,""posY"":312,""timestamp"":470769},{""image_name"":""happy_2.jpg"",""trial"":3,""block"":1,""phase"":""main"",""grid_col"":4,""grid_row"":5,""posX"":424,""posY"":520,""timestamp"":473404},{""image_name"":""sad_2.jpg"",""trial"":3,""block"":1,""phase"":""main"",""grid_col"":5,""grid_row"":1,""posX"":528,""posY"":104,""timestamp"":475839},{""image_name"":""angry_1.jpg"",""trial"":3,""block"":1,""phase"":""main"",""grid_col"":7,""grid_row"":6,""posX"":736,""posY"":624,""timestamp"":478249}]","","",""
"html-button-response","16","2.1.0","3438472","plants,animals,emotions","{""plants"":{""block1"":1,""block2"":0},""animals"":{""block1"":0,""block2"":1},""emotions"":{""block1"":0,""block2"":1}}","3","3","","","","","","","","","","","","","","3007","
    <div style=""
      display:flex;
      flex-direction:column;
      align-items:center;
      justify-content:center;
      padding:80px 20px 40px 20px;
      text-align:center;
    "">
      <img src=""stimuli/star.png"" style=""
        width:160px;
        height:160px;
        animation: spinScale 1.5s ease-in-out infinite;
        margin-bottom:30px;
      "">
      <div style=""font-size:28px; font-weight:600;"">
        Great job!
      </div>
    </div>

    <style>
      @keyframes spinScale {
        0%   { transform: scale(1) rotate(0deg); }
        50%  { transform: scale(1.4) rotate(180deg); }
        100% { transform: scale(1) rotate(360deg); }
      }
    </style>
  ","0"
"html-button-response","17","2.1.0","3441333","plants,animals,emotions","{""plants"":{""block1"":1,""block2"":0},""animals"":{""block1"":0,""block2"":1},""emotions"":{""block1"":0,""block2"":1}}","3","3","","","","","","","","","","","","","","2858","
      <div style=""font-size:24px; padding:20px;"">
        Block 2 of 2
      </div>
    ","0"
"html-button-response","18","2.1.0","3448535","plants,animals,emotions","{""plants"":{""block1"":1,""block2"":0},""animals"":{""block1"":0,""block2"":1},""emotions"":{""block1"":0,""block2"":1}}","3","3","","","","","","","","","","","","","","","",""
"emotion-grid","19","null","3489435","plants,animals,emotions","{""plants"":{""block1"":1,""block2"":0},""animals"":{""block1"":0,""block2"":1},""emotions"":{""block1"":0,""block2"":1}}","3","3","","","","","","demo","main","[""stimuli/plants/cabbage_1.jpg"",""stimuli/plants/acorn_1.jpg"",""stimuli/plants/blueberry_1.jpg"",""stimuli/plants/grass_1.jpg"",""stimuli/plants/leaf_1.jpg"",""stimuli/plants/broccoli_1.jpg"",""stimuli/plants/peanut_1.jpg"",""stimuli/plants/tree_1.jpg"",""stimuli/plants/flower_1.jpg"",""stimuli/plants/cactus_1.jpg"",""stimuli/plants/apple_1.jpg"",""stimuli/plants/cherry_1.jpg""]","2","4","1","[{""participant"":""demo"",""phase"":""main"",""block"":2,""trial"":4,""trial_in_block"":1,""image"":""cabbage_1.jpg"",""final_img_pos"":""(424, 312)"",""posX"":424,""posY"":312,""grid_col"":4,""grid_row"":3,""introduction_order"":1},{""participant"":""demo"",""phase"":""main"",""block"":2,""trial"":4,""trial_in_block"":1,""image"":""acorn_1.jpg"",""final_img_pos"":""(1048, 104)"",""posX"":1048,""posY"":104,""grid_col"":10,""grid_row"":1,""introduction_order"":2},{""participant"":""demo"",""phase"":""main"",""block"":2,""trial"":4,""trial_in_block"":1,""image"":""blueberry_1.jpg"",""final_img_pos"":""(632, 624)"",""posX"":632,""posY"":624,""grid_col"":6,""grid_row"":6,""introduction_order"":3},{""participant"":""demo"",""phase"":""main"",""block"":2,""trial"":4,""trial_in_block"":1,""image"":""grass_1.jpg"",""final_img_pos"":""(736, 208)"",""posX"":736,""posY"":208,""grid_col"":7,""grid_row"":2,""introduction_order"":4},{""participant"":""demo"",""phase"":""main"",""block"":2,""trial"":4,""trial_in_block"":1,""image"":""leaf_1.jpg"",""final_img_pos"":""(112, 520)"",""posX"":112,""posY"":520,""grid_col"":1,""grid_row"":5,""introduction_order"":5},{""participant"":""demo"",""phase"":""main"",""block"":2,""trial"":4,""trial_in_block"":1,""image"":""broccoli_1.jpg"",""final_img_pos"":""(1048, 624)"",""posX"":1048,""posY"":624,""grid_col"":10,""grid_row"":6,""introduction_order"":6},{""participant"":""demo"",""phase"":""main"",""block"":2,""trial"":4,""trial_in_block"":1,""image"":""peanut_1.jpg"",""final_img_pos"":""(112, 104)"",""posX"":112,""posY"":104,""grid_col"":1,""grid_row"":1,""introduction_order"":7},{""participant"":""demo"",""phase"":""main"",""block"":2,""trial"":4,""trial_in_block"":1,""image"":""tree_1.jpg"",""final_img_pos"":""(424, 104)"",""posX"":424,""posY"":104,""grid_col"":4,""grid_row"":1,""introduction_order"":8},{""participant"":""demo"",""phase"":""main"",""block"":2,""trial"":4,""trial_in_block"":1,""image"":""flower_1.jpg"",""final_img_pos"":""(1048, 312)"",""posX"":1048,""posY"":312,""grid_col"":10,""grid_row"":3,""introduction_order"":9},{""participant"":""demo"",""phase"":""main"",""block"":2,""trial"":4,""trial_in_block"":1,""image"":""cactus_1.jpg"",""final_img_pos"":""(112, 312)"",""posX"":112,""posY"":312,""grid_col"":1,""grid_row"":3,""introduction_order"":10},{""participant"":""demo"",""phase"":""main"",""block"":2,""trial"":4,""trial_in_block"":1,""image"":""apple_1.jpg"",""final_img_pos"":""(632, 104)"",""posX"":632,""posY"":104,""grid_col"":6,""grid_row"":1,""introduction_order"":11},{""participant"":""demo"",""phase"":""main"",""block"":2,""trial"":4,""trial_in_block"":1,""image"":""cherry_1.jpg"",""final_img_pos"":""(736, 104)"",""posX"":736,""posY"":104,""grid_col"":7,""grid_row"":1,""introduction_order"":12}]","[{""image_name"":""cabbage_1.jpg"",""trial"":4,""block"":2,""phase"":""main"",""grid_col"":4,""grid_row"":3,""posX"":424,""posY"":312,""timestamp"":494834},{""image_name"":""acorn_1.jpg"",""trial"":4,""block"":2,""phase"":""main"",""grid_col"":10,""grid_row"":1,""posX"":1048,""posY"":104,""timestamp"":497205},{""image_name"":""blueberry_1.jpg"",""trial"":4,""block"":2,""phase"":""main"",""grid_col"":6,""grid_row"":6,""posX"":632,""posY"":624,""timestamp"":499337},{""image_name"":""grass_1.jpg"",""trial"":4,""block"":2,""phase"":""main"",""grid_col"":7,""grid_row"":2,""posX"":736,""posY"":208,""timestamp"":500638.00000000006},{""image_name"":""leaf_1.jpg"",""trial"":4,""block"":2,""phase"":""main"",""grid_col"":1,""grid_row"":5,""posX"":112,""posY"":520,""timestamp"":506250},{""image_name"":""broccoli_1.jpg"",""trial"":4,""block"":2,""phase"":""main"",""grid_col"":10,""grid_row"":6,""posX"":1048,""posY"":624,""timestamp"":510736},{""image_name"":""peanut_1.jpg"",""trial"":4,""block"":2,""phase"":""main"",""grid_col"":1,""grid_row"":1,""posX"":112,""posY"":104,""timestamp"":513179},{""image_name"":""tree_1.jpg"",""trial"":4,""block"":2,""phase"":""main"",""grid_col"":4,""grid_row"":1,""posX"":424,""posY"":104,""timestamp"":520142.00000000006},{""image_name"":""flower_1.jpg"",""trial"":4,""block"":2,""phase"":""main"",""grid_col"":10,""grid_row"":3,""posX"":1048,""posY"":312,""timestamp"":523452},{""image_name"":""cactus_1.jpg"",""trial"":4,""block"":2,""phase"":""main"",""grid_col"":1,""grid_row"":3,""posX"":112,""posY"":312,""timestamp"":525654},{""image_name"":""apple_1.jpg"",""trial"":4,""block"":2,""phase"":""main"",""grid_col"":6,""grid_row"":1,""posX"":632,""posY"":104,""timestamp"":528597},{""image_name"":""cherry_1.jpg"",""trial"":4,""block"":2,""phase"":""main"",""grid_col"":7,""grid_row"":1,""posX"":736,""posY"":104,""timestamp"":532042}]","","",""
"html-button-response","20","2.1.0","3491948","plants,animals,emotions","{""plants"":{""block1"":1,""block2"":0},""animals"":{""block1"":0,""block2"":1},""emotions"":{""block1"":0,""block2"":1}}","3","3","","","","","","","","","","","","","","2511","
    <div style=""
      display:flex;
      flex-direction:column;
      align-items:center;
      justify-content:center;
      padding:80px 20px 40px 20px;
      text-align:center;
    "">
      <img src=""stimuli/star.png"" style=""
        width:160px;
        height:160px;
        animation: spinScale 1.5s ease-in-out infinite;
        margin-bottom:30px;
      "">
      <div style=""font-size:28px; font-weight:600;"">
        Great job!
      </div>
    </div>

    <style>
      @keyframes spinScale {
        0%   { transform: scale(1) rotate(0deg); }
        50%  { transform: scale(1.4) rotate(180deg); }
        100% { transform: scale(1) rotate(360deg); }
      }
    </style>
  ","0"
"html-button-response","21","2.1.0","3496498","plants,animals,emotions","{""plants"":{""block1"":1,""block2"":0},""animals"":{""block1"":0,""block2"":1},""emotions"":{""block1"":0,""block2"":1}}","3","3","","","","","","","","","","","","","","","",""
"emotion-grid","22","null","3523634","plants,animals,emotions","{""plants"":{""block1"":1,""block2"":0},""animals"":{""block1"":0,""block2"":1},""emotions"":{""block1"":0,""block2"":1}}","3","3","","","","","","demo","main","[""stimuli/animals/peacock_2.jpg"",""stimuli/animals/lion_2.jpg"",""stimuli/animals/ladybug_2.jpg"",""stimuli/animals/horse_2.jpg"",""stimuli/animals/wolf_2.jpg"",""stimuli/animals/fish_2.jpg"",""stimuli/animals/sheep_2.jpg"",""stimuli/animals/butterfly_2.jpg"",""stimuli/animals/squirrel_2.jpg"",""stimuli/animals/dolphin_2.jpg"",""stimuli/animals/pigeon_2.jpg"",""stimuli/animals/fox_2.jpg""]","2","5","2","[{""participant"":""demo"",""phase"":""main"",""block"":2,""trial"":5,""trial_in_block"":2,""image"":""peacock_2.jpg"",""final_img_pos"":""(424, 312)"",""posX"":424,""posY"":312,""grid_col"":4,""grid_row"":3,""introduction_order"":1},{""participant"":""demo"",""phase"":""main"",""block"":2,""trial"":5,""trial_in_block"":2,""image"":""lion_2.jpg"",""final_img_pos"":""(736, 104)"",""posX"":736,""posY"":104,""grid_col"":7,""grid_row"":1,""introduction_order"":2},{""participant"":""demo"",""phase"":""main"",""block"":2,""trial"":5,""trial_in_block"":2,""image"":""ladybug_2.jpg"",""final_img_pos"":""(632, 624)"",""posX"":632,""posY"":624,""grid_col"":6,""grid_row"":6,""introduction_order"":3},{""participant"":""demo"",""phase"":""main"",""block"":2,""trial"":5,""trial_in_block"":2,""image"":""horse_2.jpg"",""final_img_pos"":""(1048, 312)"",""posX"":1048,""posY"":312,""grid_col"":10,""grid_row"":3,""introduction_order"":4},{""participant"":""demo"",""phase"":""main"",""block"":2,""trial"":5,""trial_in_block"":2,""image"":""wolf_2.jpg"",""final_img_pos"":""(216, 104)"",""posX"":216,""posY"":104,""grid_col"":2,""grid_row"":1,""introduction_order"":5},{""participant"":""demo"",""phase"":""main"",""block"":2,""trial"":5,""trial_in_block"":2,""image"":""fish_2.jpg"",""final_img_pos"":""(1048, 624)"",""posX"":1048,""posY"":624,""grid_col"":10,""grid_row"":6,""introduction_order"":6},{""participant"":""demo"",""phase"":""main"",""block"":2,""trial"":5,""trial_in_block"":2,""image"":""sheep_2.jpg"",""final_img_pos"":""(1048, 104)"",""posX"":1048,""posY"":104,""grid_col"":10,""grid_row"":1,""introduction_order"":7},{""participant"":""demo"",""phase"":""main"",""block"":2,""trial"":5,""trial_in_block"":2,""image"":""butterfly_2.jpg"",""final_img_pos"":""(112, 624)"",""posX"":112,""posY"":624,""grid_col"":1,""grid_row"":6,""introduction_order"":8},{""participant"":""demo"",""phase"":""main"",""block"":2,""trial"":5,""trial_in_block"":2,""image"":""squirrel_2.jpg"",""final_img_pos"":""(112, 416)"",""posX"":112,""posY"":416,""grid_col"":1,""grid_row"":4,""introduction_order"":9},{""participant"":""demo"",""phase"":""main"",""block"":2,""trial"":5,""trial_in_block"":2,""image"":""dolphin_2.jpg"",""final_img_pos"":""(320, 520)"",""posX"":320,""posY"":520,""grid_col"":3,""grid_row"":5,""introduction_order"":10},{""participant"":""demo"",""phase"":""main"",""block"":2,""trial"":5,""trial_in_block"":2,""image"":""pigeon_2.jpg"",""final_img_pos"":""(528, 312)"",""posX"":528,""posY"":312,""grid_col"":5,""grid_row"":3,""introduction_order"":11},{""participant"":""demo"",""phase"":""main"",""block"":2,""trial"":5,""trial_in_block"":2,""image"":""fox_2.jpg"",""final_img_pos"":""(320, 104)"",""posX"":320,""posY"":104,""grid_col"":3,""grid_row"":1,""introduction_order"":12}]","[{""image_name"":""peacock_2.jpg"",""trial"":5,""block"":2,""phase"":""main"",""grid_col"":4,""grid_row"":3,""posX"":424,""posY"":312,""timestamp"":542606},{""image_name"":""lion_2.jpg"",""trial"":5,""block"":2,""phase"":""main"",""grid_col"":7,""grid_row"":1,""posX"":736,""posY"":104,""timestamp"":544191},{""image_name"":""ladybug_2.jpg"",""trial"":5,""block"":2,""phase"":""main"",""grid_col"":6,""grid_row"":6,""posX"":632,""posY"":624,""timestamp"":545734},{""image_name"":""horse_2.jpg"",""trial"":5,""block"":2,""phase"":""main"",""grid_col"":10,""grid_row"":3,""posX"":1048,""posY"":312,""timestamp"":547461},{""image_name"":""wolf_2.jpg"",""trial"":5,""block"":2,""phase"":""main"",""grid_col"":2,""grid_row"":1,""posX"":216,""posY"":104,""timestamp"":549210},{""image_name"":""fish_2.jpg"",""trial"":5,""block"":2,""phase"":""main"",""grid_col"":10,""grid_row"":6,""posX"":1048,""posY"":624,""timestamp"":551746},{""image_name"":""sheep_2.jpg"",""trial"":5,""block"":2,""phase"":""main"",""grid_col"":10,""grid_row"":1,""posX"":1048,""posY"":104,""timestamp"":553705},{""image_name"":""butterfly_2.jpg"",""trial"":5,""block"":2,""phase"":""main"",""grid_col"":1,""grid_row"":6,""posX"":112,""posY"":624,""timestamp"":555264},{""image_name"":""squirrel_2.jpg"",""trial"":5,""block"":2,""phase"":""main"",""grid_col"":1,""grid_row"":4,""posX"":112,""posY"":416,""timestamp"":558861},{""image_name"":""dolphin_2.jpg"",""trial"":5,""block"":2,""phase"":""main"",""grid_col"":3,""grid_row"":5,""posX"":320,""posY"":520,""timestamp"":562719},{""image_name"":""pigeon_2.jpg"",""trial"":5,""block"":2,""phase"":""main"",""grid_col"":5,""grid_row"":3,""posX"":528,""posY"":312,""timestamp"":564512},{""image_name"":""fox_2.jpg"",""trial"":5,""block"":2,""phase"":""main"",""grid_col"":3,""grid_row"":1,""posX"":320,""posY"":104,""timestamp"":566596}]","","",""
"html-button-response","23","2.1.0","3527567","plants,animals,emotions","{""plants"":{""block1"":1,""block2"":0},""animals"":{""block1"":0,""block2"":1},""emotions"":{""block1"":0,""block2"":1}}","3","3","","","","","","","","","","","","","","3932","
    <div style=""
      display:flex;
      flex-direction:column;
      align-items:center;
      justify-content:center;
      padding:80px 20px 40px 20px;
      text-align:center;
    "">
      <img src=""stimuli/star.png"" style=""
        width:160px;
        height:160px;
        animation: spinScale 1.5s ease-in-out infinite;
        margin-bottom:30px;
      "">
      <div style=""font-size:28px; font-weight:600;"">
        Great job!
      </div>
    </div>

    <style>
      @keyframes spinScale {
        0%   { transform: scale(1) rotate(0deg); }
        50%  { transform: scale(1.4) rotate(180deg); }
        100% { transform: scale(1) rotate(360deg); }
      }
    </style>
  ","0"
"html-button-response","24","2.1.0","3532058","plants,animals,emotions","{""plants"":{""block1"":1,""block2"":0},""animals"":{""block1"":0,""block2"":1},""emotions"":{""block1"":0,""block2"":1}}","3","3","","","","","","","","","","","","","","","",""
"emotion-grid","25","null","3578214","plants,animals,emotions","{""plants"":{""block1"":1,""block2"":0},""animals"":{""block1"":0,""block2"":1},""emotions"":{""block1"":0,""block2"":1}}","3","3","","","","","","demo","main","[""stimuli/emotions/surprise_2.jpg"",""stimuli/emotions/angry_2.jpg"",""stimuli/emotions/disgust_2.jpg"",""stimuli/emotions/sad_1.jpg"",""stimuli/emotions/fearful_1.jpg"",""stimuli/emotions/happy_2.jpg"",""stimuli/emotions/disgust_1.jpg"",""stimuli/emotions/fearful_2.jpg"",""stimuli/emotions/surprise_1.jpg"",""stimuli/emotions/angry_1.jpg"",""stimuli/emotions/happy_1.jpg"",""stimuli/emotions/sad_2.jpg""]","2","6","3","[{""participant"":""demo"",""phase"":""main"",""block"":2,""trial"":6,""trial_in_block"":3,""image"":""surprise_2.jpg"",""final_img_pos"":""(528, 312)"",""posX"":528,""posY"":312,""grid_col"":5,""grid_row"":3,""introduction_order"":1},{""participant"":""demo"",""phase"":""main"",""block"":2,""trial"":6,""trial_in_block"":3,""image"":""angry_2.jpg"",""final_img_pos"":""(1048, 104)"",""posX"":1048,""posY"":104,""grid_col"":10,""grid_row"":1,""introduction_order"":2},{""participant"":""demo"",""phase"":""main"",""block"":2,""trial"":6,""trial_in_block"":3,""image"":""disgust_2.jpg"",""final_img_pos"":""(944, 104)"",""posX"":944,""posY"":104,""grid_col"":9,""grid_row"":1,""introduction_order"":3},{""participant"":""demo"",""phase"":""main"",""block"":2,""trial"":6,""trial_in_block"":3,""image"":""sad_1.jpg"",""final_img_pos"":""(840, 104)"",""posX"":840,""posY"":104,""grid_col"":8,""grid_row"":1,""introduction_order"":4},{""participant"":""demo"",""phase"":""main"",""block"":2,""trial"":6,""trial_in_block"":3,""image"":""fearful_1.jpg"",""final_img_pos"":""(1048, 624)"",""posX"":1048,""posY"":624,""grid_col"":10,""grid_row"":6,""introduction_order"":5},{""participant"":""demo"",""phase"":""main"",""block"":2,""trial"":6,""trial_in_block"":3,""image"":""happy_2.jpg"",""final_img_pos"":""(320, 520)"",""posX"":320,""posY"":520,""grid_col"":3,""grid_row"":5,""introduction_order"":6},{""participant"":""demo"",""phase"":""main"",""block"":2,""trial"":6,""trial_in_block"":3,""image"":""disgust_1.jpg"",""final_img_pos"":""(736, 104)"",""posX"":736,""posY"":104,""grid_col"":7,""grid_row"":1,""introduction_order"":7},{""participant"":""demo"",""phase"":""main"",""block"":2,""trial"":6,""trial_in_block"":3,""image"":""fearful_2.jpg"",""final_img_pos"":""(632, 312)"",""posX"":632,""posY"":312,""grid_col"":6,""grid_row"":3,""introduction_order"":8},{""participant"":""demo"",""phase"":""main"",""block"":2,""trial"":6,""trial_in_block"":3,""image"":""surprise_1.jpg"",""final_img_pos"":""(944, 624)"",""posX"":944,""posY"":624,""grid_col"":9,""grid_row"":6,""introduction_order"":9},{""participant"":""demo"",""phase"":""main"",""block"":2,""trial"":6,""trial_in_block"":3,""image"":""angry_1.jpg"",""final_img_pos"":""(632, 104)"",""posX"":632,""posY"":104,""grid_col"":6,""grid_row"":1,""introduction_order"":10},{""participant"":""demo"",""phase"":""main"",""block"":2,""trial"":6,""trial_in_block"":3,""image"":""happy_1.jpg"",""final_img_pos"":""(424, 520)"",""posX"":424,""posY"":520,""grid_col"":4,""grid_row"":5,""introduction_order"":11},{""participant"":""demo"",""phase"":""main"",""block"":2,""trial"":6,""trial_in_block"":3,""image"":""sad_2.jpg"",""final_img_pos"":""(632, 624)"",""posX"":632,""posY"":624,""grid_col"":6,""grid_row"":6,""introduction_order"":12}]","[{""image_name"":""surprise_2.jpg"",""trial"":6,""block"":2,""phase"":""main"",""grid_col"":5,""grid_row"":3,""posX"":528,""posY"":312,""timestamp"":578497},{""image_name"":""angry_2.jpg"",""trial"":6,""block"":2,""phase"":""main"",""grid_col"":10,""grid_row"":1,""posX"":1048,""posY"":104,""timestamp"":582591},{""image_name"":""disgust_2.jpg"",""trial"":6,""block"":2,""phase"":""main"",""grid_col"":9,""grid_row"":1,""posX"":944,""posY"":104,""timestamp"":584401.0000000001},{""image_name"":""sad_1.jpg"",""trial"":6,""block"":2,""phase"":""main"",""grid_col"":8,""grid_row"":1,""posX"":840,""posY"":104,""timestamp"":586601},{""image_name"":""fearful_1.jpg"",""trial"":6,""block"":2,""phase"":""main"",""grid_col"":10,""grid_row"":6,""posX"":1048,""posY"":624,""timestamp"":589995},{""image_name"":""happy_2.jpg"",""trial"":6,""block"":2,""phase"":""main"",""grid_col"":3,""grid_row"":5,""posX"":320,""posY"":520,""timestamp"":592922},{""image_name"":""disgust_1.jpg"",""trial"":6,""block"":2,""phase"":""main"",""grid_col"":7,""grid_row"":1,""posX"":736,""posY"":104,""timestamp"":595356},{""image_name"":""fearful_2.jpg"",""trial"":6,""block"":2,""phase"":""main"",""grid_col"":6,""grid_row"":3,""posX"":632,""posY"":312,""timestamp"":598025},{""image_name"":""surprise_1.jpg"",""trial"":6,""block"":2,""phase"":""main"",""grid_col"":9,""grid_row"":6,""posX"":944,""posY"":624,""timestamp"":603511},{""image_name"":""angry_1.jpg"",""trial"":6,""block"":2,""phase"":""main"",""grid_col"":6,""grid_row"":1,""posX"":632,""posY"":104,""timestamp"":605446},{""image_name"":""happy_1.jpg"",""trial"":6,""block"":2,""phase"":""main"",""grid_col"":5,""grid_row"":2,""posX"":528,""posY"":208,""timestamp"":608356},{""image_name"":""sad_2.jpg"",""trial"":6,""block"":2,""phase"":""main"",""grid_col"":6,""grid_row"":6,""posX"":632,""posY"":624,""timestamp"":615622},{""image_name"":""happy_1.jpg"",""trial"":6,""block"":2,""phase"":""main"",""grid_col"":4,""grid_row"":5,""posX"":424,""posY"":520,""timestamp"":620989}]","","",""
"html-button-response","26","2.1.0","3580483","plants,animals,emotions","{""plants"":{""block1"":1,""block2"":0},""animals"":{""block1"":0,""block2"":1},""emotions"":{""block1"":0,""block2"":1}}","3","3","","","","","","","","","","","","","","2267","
    <div style=""
      display:flex;
      flex-direction:column;
      align-items:center;
      justify-content:center;
      padding:80px 20px 40px 20px;
      text-align:center;
    "">
      <img src=""stimuli/star.png"" style=""
        width:160px;
        height:160px;
        animation: spinScale 1.5s ease-in-out infinite;
        margin-bottom:30px;
      "">
      <div style=""font-size:28px; font-weight:600;"">
        Great job!
      </div>
    </div>

    <style>
      @keyframes spinScale {
        0%   { transform: scale(1) rotate(0deg); }
        50%  { transform: scale(1.4) rotate(180deg); }
        100% { transform: scale(1) rotate(360deg); }
      }
    </style>
  ","0"
